Packet number,Gyroscope X (deg/s),Gyroscope Y (deg/s),Gyroscope Z (deg/s),Accelerometer X (g),Accelerometer Y (g),Accelerometer Z (g),Magnetometer X (G),Magnetometer Y (G),Magnetometer Z (G)
3,1,-1.125,-0.125,-0.05029297,0.02685547,0.9594727,0.02539063,0.1943359,-0.6933594
5,1,-1.125,-0.125,-0.05029297,0.02685547,0.9594727,0.02539063,0.1943359,-0.6933594
6,1,-0.125,-0.5625,-0.04248047,0.03076172,0.9594727,0.01953125,0.1977539,-0.6889648
8,0.875,-1.0625,0,-0.05029297,0.03857422,0.9672852,0.01953125,0.1977539,-0.6889648
9,0.9375,-0.5625,-0.4375,-0.05419922,0.03466797,0.9711914,0.01953125,0.1977539,-0.6889648
11,0.5,-0.625,-0.75,-0.06591797,0.03466797,0.9672852,0.02880859,0.1933594,-0.6806641
12,1.4375,-1.1875,-0.6875,-0.05029297,0.02685547,0.9555664,0.02880859,0.1933594,-0.6806641
14,1.1875,-0.5625,-0.125,-0.03076172,0.03466797,0.9516602,0.02880859,0.1933594,-0.6806641
15,1.1875,0.0625,-0.5,-0.06591797,0.05029297,0.9750977,0.03027344,0.2001953,-0.6918945
17,0.5,0.1875,-0.375,-0.05419922,0.03466797,0.9868164,0.03027344,0.2001953,-0.6918945
18,1.3125,-0.0625,-0.3125,-0.03857422,0.03076172,0.9555664,0.03027344,0.2001953,-0.6918945
20,0.9375,-0.5,-0.25,-0.05810547,0.03857422,0.9672852,0.01855469,0.1953125,-0.6865234
21,1.25,-0.625,-0.25,-0.05810547,0.04248047,0.9672852,0.01855469,0.1953125,-0.6865234
23,1.3125,-0.1875,-0.6875,-0.04248047,0.04248047,0.9672852,0.01855469,0.1953125,-0.6865234
24,1.5625,0.25,-0.5625,-0.04248047,0.04248047,0.9594727,0.01855469,0.1953125,-0.6865234
26,1.4375,0,-0.4375,-0.05810547,0.02294922,1.001953,0.01855469,0.1953125,-0.6865234
27,0.875,-0.5625,-0.9375,-0.04638672,0.03076172,0.9829102,0.01855469,0.1953125,-0.6865234
29,0.9375,-0.25,-0.25,-0.06201172,0.03857422,0.9829102,0.01855469,0.1953125,-0.6865234
30,0.9375,-0.6875,-0.5,-0.04248047,0.04248047,0.9750977,0.02099609,0.2011719,-0.6918945
32,0.75,-0.6875,-0.375,-0.03857422,0.01513672,0.9711914,0.02099609,0.2011719,-0.6918945
33,0.875,-0.6875,-0.25,-0.06201172,0.04248047,0.9516602,0.02099609,0.2011719,-0.6918945
35,0.5625,-0.625,-0.4375,-0.05810547,0.04638672,0.9829102,0.02197266,0.1943359,-0.6777344
36,0.75,0.0625,-0.5,-0.04248047,0.04248047,0.9672852,0.02197266,0.1943359,-0.6777344
38,0.9375,-0.625,-0.6875,-0.04638672,0.05029297,0.9829102,0.02197266,0.1943359,-0.6777344
39,1.25,-0.6875,-0.4375,-0.05029297,0.04248047,0.9555664,0.02197266,0.1943359,-0.6777344
41,0.9375,-0.1875,-0.8125,-0.04638672,0.03076172,0.9633789,0.02197266,0.1943359,-0.6777344
42,0.6875,-1.0625,-0.5,-0.04248047,0.03076172,0.9672852,0.02197266,0.1943359,-0.6777344
44,0.6875,0.3125,-0.6875,-0.05810547,0.05029297,0.9672852,0.02197266,0.1943359,-0.6777344
45,0.25,-0.6875,-0.75,-0.04638672,0.05029297,0.9829102,0.02197266,0.190918,-0.6875
47,1.1875,-0.6875,-0.6875,-0.03466797,0.05419922,0.9672852,0.02197266,0.190918,-0.6875
48,0.6875,0.25,-0.6875,-0.05419922,0.03466797,0.9750977,0.02197266,0.190918,-0.6875
50,0.5,-0.3125,-0.375,-0.03857422,0.01513672,0.9477539,0.03369141,0.1977539,-0.6904297
51,0.375,0,-1,-0.03857422,0.03466797,0.9672852,0.03369141,0.1977539,-0.6904297
53,0.4375,-0.1875,-0.625,-0.04638672,0.06591797,0.9711914,0.03369141,0.1977539,-0.6904297
54,0.4375,-0.125,-0.125,-0.06591797,0.05810547,0.9790039,0.02099609,0.1894531,-0.6875
56,-0.25,-0.75,-0.75,-0.05029297,0.03857422,0.9672852,0.02099609,0.1894531,-0.6875
57,0.5,-0.3125,-0.4375,-0.05029297,0.03466797,0.9477539,0.02099609,0.1894531,-0.6875
59,0.3125,-0.6875,-1.1875,-0.04638672,0.04248047,0.9672852,0.02099609,0.1894531,-0.6875
60,0,-0.5625,-0.75,-0.05419922,0.02294922,0.9829102,0.02099609,0.1977539,-0.6835938
62,0.4375,-0.625,-0.6875,-0.06591797,0.03466797,0.9829102,0.02099609,0.1977539,-0.6835938
63,-0.125,-1.4375,-0.625,-0.05810547,0.03076172,0.9829102,0.02099609,0.1977539,-0.6835938
65,0.75,-0.25,-0.6875,-0.06201172,0.02685547,0.9829102,0.01611328,0.1918945,-0.6821289
66,0.5,-0.5625,-0.625,-0.05029297,0.02685547,0.9516602,0.01611328,0.1918945,-0.6821289
68,0,-1.1875,-0.6875,-0.06591797,0.05419922,0.9829102,0.01611328,0.1918945,-0.6821289
69,0.6875,0,-0.625,-0.05029297,0.01513672,0.9829102,0.01855469,0.1967773,-0.6865234
71,0.5,-0.9375,-0.5625,-0.05810547,0.04638672,0.9750977,0.01855469,0.1967773,-0.6865234
72,0.25,-1.0625,-0.6875,-0.05029297,0.05029297,0.9594727,0.01855469,0.1967773,-0.6865234
74,0.5625,-0.3125,-0.9375,-0.04638672,0.03857422,0.9633789,0.01855469,0.1967773,-0.6865234
75,0.25,0.125,-0.4375,-0.06591797,0.03466797,0.9594727,0.0234375,0.1943359,-0.6865234
77,1.125,-0.3125,-0.8125,-0.03857422,0.05029297,0.9555664,0.0234375,0.1943359,-0.6865234
78,-0.1875,0.125,-1.125,-0.05419922,0.04248047,0.9829102,0.0234375,0.1943359,-0.6865234
80,0.625,-0.75,-0.75,-0.06201172,0.04248047,0.9829102,0.02197266,0.1967773,-0.6835938
81,0.6875,0,-0.6875,-0.06201172,0.03466797,0.9594727,0.02197266,0.1967773,-0.6835938
83,0.1875,-0.8125,-0.875,-0.05419922,0.01904297,0.9711914,0.02197266,0.1967773,-0.6835938
84,0.6875,-0.3125,-0.4375,-0.03076172,0.05029297,0.9594727,0.02539063,0.1967773,-0.6806641
86,0.6875,-0.6875,-0.25,-0.05029297,0.04638672,0.9750977,0.02539063,0.1967773,-0.6806641
87,0.8125,0,-0.75,-0.05810547,0.02685547,0.9868164,0.02539063,0.1967773,-0.6806641
89,0.4375,-0.1875,-0.125,-0.03857422,0.03076172,0.9750977,0.02539063,0.1967773,-0.6806641
90,0.5625,-0.25,0,-0.04638672,0.03076172,0.9711914,0.02685547,0.190918,-0.6875
92,0.9375,0.125,-0.3125,-0.03857422,0.03857422,0.9555664,0.02685547,0.190918,-0.6875
93,1,-0.1875,-0.9375,-0.05029297,0.01513672,0.9672852,0.02685547,0.190918,-0.6875
95,1.0625,0.4375,-0.625,-0.05029297,0.05810547,0.9399414,0.0234375,0.1918945,-0.6835938
96,0.75,0.1875,-0.875,-0.04248047,0.05029297,0.9711914,0.0234375,0.1918945,-0.6835938
98,0.125,0.5625,-0.625,-0.05029297,0.03857422,0.9750977,0.0234375,0.1918945,-0.6835938
100,0.5,1.1875,0,-0.06591797,0.02294922,0.9829102,0.02197266,0.1967773,-0.6850586
102,0.75,0.875,-0.6875,-0.05419922,0.03466797,0.9711914,0.02197266,0.1967773,-0.6850586
103,0.9375,0.6875,-1.1875,-0.04638672,0.02685547,0.9829102,0.02197266,0.1967773,-0.6850586
105,1.0625,-0.0625,-0.5625,-0.05810547,0.02685547,0.9711914,0.02197266,0.1967773,-0.6850586
106,0.4375,0.5625,-0.375,-0.05810547,0.04248047,0.9829102,0.02197266,0.1967773,-0.6850586
108,0.3125,0,-0.125,-0.05810547,0.04248047,0.9985352,0.02197266,0.1967773,-0.6850586
109,0.6875,0,-0.75,-0.04248047,0.03076172,0.9672852,0.02197266,0.1967773,-0.6850586
111,0.3125,0.625,-0.375,-0.05419922,0.03076172,0.9790039,0.0234375,0.1967773,-0.6918945
112,0.5625,0.375,-0.4375,-0.05029297,0.03076172,0.9829102,0.0234375,0.1967773,-0.6918945
114,0.25,-0.4375,-0.5625,-0.05810547,0.03076172,0.9711914,0.0234375,0.1967773,-0.6918945
115,0.375,0,-0.625,-0.05029297,0.04638672,0.9516602,0.02197266,0.2011719,-0.6962891
117,0.6875,0,-1.0625,-0.05029297,0.03857422,0.9594727,0.02197266,0.2011719,-0.6962891
118,0,-0.4375,-0.75,-0.06201172,0.04248047,0.9672852,0.02197266,0.2011719,-0.6962891
120,0.75,-0.25,-0.4375,-0.05810547,0.03466797,0.9829102,0.02197266,0.2011719,-0.6962891
121,-0.0625,-0.375,-0.5,-0.03857422,0.02685547,0.9672852,0.02197266,0.2011719,-0.6962891
123,-0.1875,-0.375,-0.3125,-0.05419922,0.03466797,0.9907227,0.02197266,0.2011719,-0.6962891
124,0.375,-0.4375,-1.0625,-0.05810547,0.03076172,0.9711914,0.02197266,0.2011719,-0.6962891
126,-0.125,-0.25,0.0625,-0.04638672,0.02685547,0.9594727,0.02441406,0.1977539,-0.6918945
127,-0.1875,-0.375,-0.5,-0.05810547,0.03466797,0.9555664,0.02441406,0.1977539,-0.6918945
129,-0.0625,-0.625,-0.5,-0.05810547,0.01513672,0.9633789,0.02441406,0.1977539,-0.6918945
130,0.375,-0.4375,-0.4375,-0.04638672,0.04638672,0.9829102,0.02441406,0.1918945,-0.6850586
132,0.5,-0.8125,-0.3125,-0.05419922,0.03076172,0.9868164,0.02441406,0.1918945,-0.6850586
133,0,-0.25,-0.5625,-0.05029297,0.05029297,0.9868164,0.02441406,0.1918945,-0.6850586
135,0.375,-0.3125,-0.4375,-0.06591797,0.01123047,0.9399414,0.01953125,0.1933594,-0.6791992
136,-0.1875,-0.25,-0.5625,-0.04248047,0.04248047,0.9594727,0.01953125,0.1933594,-0.6791992
138,-0.3125,0.375,-0.5,-0.05029297,0.03857422,0.9555664,0.01953125,0.1933594,-0.6791992
139,-0.25,0.1875,-0.5,-0.04248047,0.02685547,0.9672852,0.01953125,0.1933594,-0.6791992
141,0.75,0.4375,-0.125,-0.04638672,0.02685547,0.9672852,0.02197266,0.1967773,-0.6835938
142,0,0.8125,-0.9375,-0.03466797,0.01513672,0.9594727,0.02197266,0.1967773,-0.6835938
144,-0.3125,0.5,-1.0625,-0.05810547,0.02294922,0.9633789,0.02197266,0.1967773,-0.6835938
145,0,0.875,-0.5625,-0.04248047,0.05029297,0.9790039,0.02197266,0.1860352,-0.6904297
147,0.125,1,-0.375,-0.05810547,0.01904297,0.9633789,0.02197266,0.1860352,-0.6904297
148,0.1875,1.0625,-0.625,-0.06591797,0.01904297,0.9868164,0.02197266,0.1860352,-0.6904297
150,-0.1875,0.5,-0.5625,-0.04638672,0.05029297,0.9829102,0.0234375,0.2060547,-0.6865234
151,-0.25,0,-0.5625,-0.04248047,0.03076172,0.9829102,0.0234375,0.2060547,-0.6865234
153,0.125,0.1875,-0.1875,-0.04638672,0.05029297,0.9946289,0.0234375,0.2060547,-0.6865234
154,-0.3125,-0.0625,-0.6875,-0.06591797,0.04638672,0.9672852,0.0234375,0.2060547,-0.6865234
156,0,-0.5625,-0.25,-0.04248047,0.04638672,0.9711914,0.01611328,0.1967773,-0.6835938
157,0.0625,-0.3125,0.125,-0.06982422,0.03076172,0.9829102,0.01611328,0.1967773,-0.6835938
159,-0.1875,0.1875,-0.9375,-0.04638672,0.04248047,0.9829102,0.01611328,0.1967773,-0.6835938
160,-0.3125,0.4375,-0.375,-0.05810547,0.05029297,0.9633789,0.02539063,0.190918,-0.6850586
162,0,0,-0.875,-0.04248047,0.04248047,0.9594727,0.02539063,0.190918,-0.6850586
163,0,0.4375,-0.4375,-0.05810547,0.03466797,0.9829102,0.02539063,0.190918,-0.6850586
165,-0.25,0,-0.3125,-0.06591797,0.04638672,0.9868164,0.0234375,0.1967773,-0.6806641
166,0,0,-0.6875,-0.06201172,0.03857422,0.9829102,0.0234375,0.1967773,-0.6806641
168,-0.0625,-0.3125,-0.25,-0.06591797,0.02294922,0.9594727,0.0234375,0.1967773,-0.6806641
169,-0.25,-0.5,-0.0625,-0.05810547,0.02685547,0.9594727,0.0234375,0.1967773,-0.6806641
171,0.375,-0.5625,-0.25,-0.06982422,0.03857422,0.9868164,0.0234375,0.1967773,-0.6806641
172,0.0625,-0.9375,-0.5,-0.05810547,0.03466797,0.9790039,0.0234375,0.1967773,-0.6806641
174,-0.8125,-1.125,0,-0.01513672,0.03857422,0.9399414,0.0234375,0.1967773,-0.6806641
175,-0.1875,-1.125,-0.125,-0.06201172,0.04248047,0.9555664,0.02197266,0.1953125,-0.6948242
177,-0.1875,-1.3125,-0.0625,-0.04248047,0.03857422,0.9672852,0.02197266,0.1953125,-0.6948242
178,0,-0.9375,0.25,-0.06591797,0.05419922,0.9750977,0.02197266,0.1953125,-0.6948242
180,0.125,-1.5625,0.25,-0.03466797,0.03076172,0.9555664,0.01855469,0.1918945,-0.6821289
181,-0.1875,-2,-0.4375,-0.05419922,0.04248047,0.9868164,0.01855469,0.1918945,-0.6821289
183,-0.375,-1.1875,-0.5,-0.04248047,0.05810547,0.9633789,0.01855469,0.1918945,-0.6821289
184,-0.0625,-1.1875,-0.625,-0.05810547,0.03857422,0.9829102,0.01855469,0.1918945,-0.6821289
186,0,-1.125,-0.5625,-0.05029297,0.04638672,0.9711914,0.01855469,0.1918945,-0.6821289
187,-0.3125,-0.9375,-0.5625,-0.04638672,0.03857422,0.9555664,0.01855469,0.1918945,-0.6821289
189,-0.3125,-0.1875,-0.8125,-0.04638672,0.06201172,0.9907227,0.01855469,0.1918945,-0.6821289
190,-0.4375,-1.6875,-0.5,-0.04638672,0.03076172,0.9711914,0.02783203,0.1967773,-0.6821289
192,-0.1875,-0.625,-0.25,-0.05419922,0.05029297,0.9477539,0.02783203,0.1967773,-0.6821289
193,-0.1875,-0.1875,-0.5625,-0.03466797,0.03076172,0.9672852,0.02783203,0.1967773,-0.6821289
195,-0.5,-0.0625,-0.6875,-0.06982422,0.05029297,0.9594727,0.02685547,0.1918945,-0.6791992
197,0.1875,-0.875,-0.5,-0.05810547,0.03857422,0.9868164,0.02685547,0.1918945,-0.6791992
199,0.25,-0.875,-0.625,-0.07373047,0.03466797,0.9829102,0.02685547,0.1918945,-0.6791992
200,0,-0.0625,-0.5,-0.04248047,0.02685547,0.9829102,0.01611328,0.190918,-0.6904297
202,0.5625,-0.5625,-1,-0.06201172,0.03076172,0.9672852,0.01611328,0.190918,-0.6904297
203,0,-0.0625,-0.625,-0.03076172,0.03076172,0.9594727,0.01611328,0.190918,-0.6904297
205,0,0,-1.125,-0.03076172,0.007324219,0.9672852,0.01611328,0.190918,-0.6904297
206,0.375,0.75,-0.625,-0.04248047,0.03466797,0.9711914,0.01757813,0.1992188,-0.6904297
208,0.1875,0.25,-0.6875,-0.03466797,0.04638672,0.9672852,0.01757813,0.1992188,-0.6904297
209,-0.0625,0.4375,-0.375,-0.05029297,0.03466797,0.9633789,0.01757813,0.1992188,-0.6904297
211,0.0625,0.6875,-1.125,-0.04248047,0.03857422,0.9594727,0.01513672,0.1977539,-0.6918945
212,0.0625,0.625,-0.875,-0.05810547,0.05029297,0.9868164,0.01513672,0.1977539,-0.6918945
214,0,0.1875,-0.6875,-0.05419922,0.04638672,0.9868164,0.01513672,0.1977539,-0.6918945
215,0.4375,0.75,-0.9375,-0.06982422,0.01904297,0.9829102,0.0234375,0.190918,-0.6972656
217,-0.1875,1,-0.75,-0.03076172,0.05029297,0.9711914,0.0234375,0.190918,-0.6972656
218,0.25,0.875,-0.75,-0.05029297,0.04638672,0.9868164,0.0234375,0.190918,-0.6972656
220,0.0625,0.875,-0.875,-0.03466797,0.05810547,0.9829102,0.0234375,0.190918,-0.6972656
221,0.125,0.5,-1.0625,-0.06591797,0.02685547,0.9672852,0.02441406,0.1953125,-0.6918945
223,0.3125,0.4375,-1.25,-0.05810547,0.03857422,0.9438477,0.02441406,0.1953125,-0.6918945
224,0.1875,0.5625,-1.0625,-0.06201172,0.04248047,0.9633789,0.02441406,0.1953125,-0.6918945
226,0,0.8125,-0.875,-0.04248047,0.03076172,0.9829102,0.02099609,0.1943359,-0.6875
227,0.0625,0.375,-1.1875,-0.03857422,0.03466797,0.9750977,0.02099609,0.1943359,-0.6875
229,-0.25,0.5,-0.8125,-0.04638672,0.01513672,0.9672852,0.02099609,0.1943359,-0.6875
230,0.6875,1,-1.125,-0.06201172,0.03857422,0.9633789,0.02685547,0.1943359,-0.6948242
232,-0.5625,0.6875,-1.125,-0.04248047,0.03076172,0.9829102,0.02685547,0.1943359,-0.6948242
233,0.125,1.5625,-1.125,-0.04248047,0.06201172,0.9633789,0.02685547,0.1943359,-0.6948242
235,-0.1875,1.4375,-1,-0.04638672,0.02294922,0.9555664,0.02685547,0.1943359,-0.6948242
236,0.0625,1.9375,-1.5625,-0.04638672,0.05029297,0.9555664,0.02685547,0.1943359,-0.6948242
238,0,2.5625,-0.875,-0.05810547,0.01513672,0.9672852,0.02685547,0.1943359,-0.6948242
239,0.25,2.6875,-1.375,-0.05810547,0.03076172,0.9633789,0.02685547,0.1943359,-0.6948242
241,0.25,2.75,-1.375,-0.05419922,0.03857422,0.9633789,0.02685547,0.1953125,-0.6904297
242,0,2.4375,-1.3125,-0.05029297,0.02685547,0.9829102,0.02685547,0.1953125,-0.6904297
244,0,2.3125,-1.625,-0.04638672,0.02685547,0.9594727,0.02685547,0.1953125,-0.6904297
245,-0.0625,2.375,-1.375,-0.05419922,0.01123047,0.9594727,0.02099609,0.1967773,-0.6835938
247,0.125,2.6875,-1.75,-0.03857422,0.01513672,0.9555664,0.02099609,0.1967773,-0.6835938
248,0,1.8125,-1.125,-0.06201172,0.03857422,0.9594727,0.02099609,0.1967773,-0.6835938
250,0.5,2.875,-0.8125,-0.04248047,0.01513672,0.9711914,0.02099609,0.1967773,-0.6835938
251,0.0625,2.4375,-1.5,-0.05419922,0.01513672,0.9829102,0.02099609,0.1967773,-0.6835938
253,0.4375,2.75,-1.1875,-0.04638672,0.04638672,0.9594727,0.02099609,0.1967773,-0.6835938
254,0.3125,2.25,-1.3125,-0.04248047,0.03076172,0.9672852,0.02099609,0.1967773,-0.6835938
256,0.3125,1.8125,-1.625,-0.03076172,0.01904297,0.9555664,0.02685547,0.1977539,-0.6918945
257,1.3125,2.125,-1.3125,-0.05810547,0.02685547,0.9477539,0.02685547,0.1977539,-0.6918945
259,0.6875,2.6875,-1.25,-0.06982422,0.03466797,0.9750977,0.02685547,0.1977539,-0.6918945
260,0.4375,2.4375,-1.5,-0.06201172,0.03076172,0.9750977,0.02441406,0.1943359,-0.7001953
262,0.5625,2.4375,-1.375,-0.06201172,0.04248047,0.9829102,0.02441406,0.1943359,-0.7001953
263,0.8125,2.4375,-1.125,-0.06201172,0.04638672,0.9868164,0.02441406,0.1943359,-0.7001953
265,0.8125,1.8125,-1.25,-0.07373047,0.03857422,0.9633789,0.02197266,0.1933594,-0.6850586
266,0.75,2.5,-1.0625,-0.06201172,0.01513672,0.9829102,0.02197266,0.1933594,-0.6850586
268,0.5625,1.9375,-1.1875,-0.04248047,0.02294922,0.9438477,0.02197266,0.1933594,-0.6850586
269,0.9375,2.125,-0.9375,-0.05419922,0.02294922,0.9633789,0.02197266,0.1933594,-0.6850586
271,0.75,1.6875,-0.875,-0.05810547,0.01123047,0.9868164,0.01757813,0.1953125,-0.6875
272,0.875,1.5,-1.1875,-0.06982422,0.01513672,0.9790039,0.01757813,0.1953125,-0.6875
274,0.125,1.8125,-1,-0.06591797,0.03076172,0.9711914,0.01757813,0.1953125,-0.6875
275,0.6875,1.75,-1,-0.06591797,0.03466797,0.9829102,0.02197266,0.1953125,-0.6918945
277,0.6875,2.3125,-1.0625,-0.06201172,0.03857422,0.9594727,0.02197266,0.1953125,-0.6918945
278,1.3125,1.3125,-1,-0.07373047,0.01513672,0.9829102,0.02197266,0.1953125,-0.6918945
280,0.8125,1.375,-1.5,-0.05810547,0.04638672,0.9829102,0.0234375,0.1933594,-0.6889648
281,0.3125,1.25,-1.0625,-0.07373047,0.03857422,0.9711914,0.0234375,0.1933594,-0.6889648
283,0.3125,1.125,-1.5625,-0.04638672,0.01513672,0.9829102,0.0234375,0.1933594,-0.6889648
284,0.9375,1.4375,-1,-0.08154297,0.03076172,0.9868164,0.0234375,0.1933594,-0.6889648
286,0.8125,1.75,-1.375,-0.05810547,0.03076172,0.9594727,0.0234375,0.1977539,-0.6875
287,0.0625,1.1875,-1.0625,-0.03466797,0.01513672,0.9633789,0.0234375,0.1977539,-0.6875
289,0.875,1.5625,-1,-0.04248047,0.01513672,0.9555664,0.0234375,0.1977539,-0.6875
290,0.4375,1.4375,-0.9375,-0.04638672,0.03857422,0.9672852,0.02441406,0.1977539,-0.6865234
292,0.875,0.875,-1.1875,-0.06201172,0.04638672,0.9868164,0.02441406,0.1977539,-0.6865234
294,0.6875,1,-0.9375,-0.05810547,0.02294922,0.9829102,0.02441406,0.1977539,-0.6865234
296,0.5625,1.1875,-1.25,-0.04248047,0.03857422,0.9672852,0.02441406,0.1967773,-0.6918945
297,0.625,0.75,-0.5625,-0.04248047,0.03466797,0.9555664,0.02441406,0.1967773,-0.6918945
299,0.5625,1.0625,-1,-0.03857422,0.02294922,0.9711914,0.02441406,0.1967773,-0.6918945
300,0.625,1,-1.125,-0.06982422,0.03466797,0.9477539,0.02441406,0.1967773,-0.6918945
302,0.5,1.25,-0.375,-0.06201172,0.03076172,0.9633789,0.02441406,0.1967773,-0.6918945
303,0.8125,1.375,-1.125,-0.05029297,0.03076172,0.9868164,0.02441406,0.1967773,-0.6918945
305,0.9375,1.0625,-0.4375,-0.06982422,0.02294922,0.9868164,0.02441406,0.1967773,-0.6918945
306,0.1875,1.4375,-1.25,-0.05419922,0.03857422,0.9829102,0.03027344,0.1977539,-0.6865234
308,1.1875,1.3125,-0.625,-0.06591797,0.01513672,0.9672852,0.03027344,0.1977539,-0.6865234
309,1,0.75,-1.125,-0.05810547,0.03076172,0.9555664,0.03027344,0.1977539,-0.6865234
311,0.8125,1,-1.1875,-0.07373047,0.01513672,1.001953,0.02880859,0.1967773,-0.6889648
312,0.75,1.1875,-0.5625,-0.05029297,0.03857422,0.9672852,0.02880859,0.1967773,-0.6889648
314,1.625,1.1875,-0.75,-0.06982422,0.05419922,0.9750977,0.02880859,0.1967773,-0.6889648
315,0.9375,0.5625,-0.875,-0.06591797,0.05029297,0.9829102,0.02880859,0.1967773,-0.6889648
317,0.4375,0.625,-0.75,-0.06591797,0.01513672,0.9750977,0.02880859,0.1967773,-0.6889648
318,0.625,0.5,-1.3125,-0.05029297,0.03857422,0.9985352,0.02880859,0.1967773,-0.6889648
320,0.3125,0,-1.0625,-0.05419922,0.03466797,0.9633789,0.02880859,0.1967773,-0.6889648
321,0.3125,0.375,-0.875,-0.06591797,0.01513672,0.9829102,0.02880859,0.1953125,-0.6889648
323,0.4375,-0.1875,-0.9375,-0.05810547,0.03857422,0.9829102,0.02880859,0.1953125,-0.6889648
324,-0.125,0,0,-0.07373047,0.05029297,0.9555664,0.02880859,0.1953125,-0.6889648
326,0.3125,-0.375,-0.5,-0.06201172,0.03857422,0.9711914,0.02685547,0.1918945,-0.6835938
327,0,-0.75,-0.625,-0.05419922,0.03857422,0.9790039,0.02685547,0.1918945,-0.6835938
329,-0.375,-1.125,-0.25,-0.06201172,0.03466797,0.9829102,0.02685547,0.1918945,-0.6835938
330,0,-0.875,-0.4375,-0.07373047,0.04248047,0.9790039,0.02197266,0.1967773,-0.6962891
332,0.3125,-1.5625,-0.25,-0.05810547,0.03857422,0.9790039,0.02197266,0.1967773,-0.6962891
333,0,-1.25,-0.125,-0.06982422,0.05419922,0.9711914,0.02197266,0.1967773,-0.6962891
335,0,-1.625,-0.3125,-0.08154297,0.04248047,0.9672852,0.02197266,0.1967773,-0.6962891
336,-0.3125,-1.25,-0.625,-0.05029297,0.03076172,0.9829102,0.02685547,0.1967773,-0.6933594
338,0.1875,-1.375,-0.0625,-0.05810547,0.04248047,0.9633789,0.02685547,0.1967773,-0.6933594
339,-0.75,-1.5625,0,-0.08154297,0.03076172,0.9829102,0.02685547,0.1967773,-0.6933594
341,-0.4375,-2.125,-0.375,-0.04638672,0.03857422,0.9907227,0.02441406,0.1933594,-0.6850586
342,-0.25,-1.5,0,-0.05810547,0.05029297,0.9438477,0.02441406,0.1933594,-0.6850586
344,-0.5,-1.1875,-0.125,-0.06201172,0.05029297,0.9868164,0.02441406,0.1933594,-0.6850586
345,-0.25,-1.8125,0,-0.05029297,0.01513672,0.9711914,0.02099609,0.2001953,-0.6850586
347,-0.125,-1.25,-0.9375,-0.05810547,0.03857422,0.9672852,0.02099609,0.2001953,-0.6850586
348,-0.3125,-0.9375,-0.125,-0.05810547,0.03466797,0.9672852,0.02099609,0.2001953,-0.6850586
350,-0.3125,-1.375,-1.1875,-0.05810547,0.02685547,0.9750977,0.02099609,0.2001953,-0.6850586
351,-0.3125,-0.9375,-0.3125,-0.05419922,0.05029297,0.9711914,0.03027344,0.1943359,-0.6875
353,-0.5,-0.875,-0.25,-0.05810547,0.03466797,0.9672852,0.03027344,0.1943359,-0.6875
354,0,-0.6875,-0.4375,-0.06591797,0.01123047,0.9672852,0.03027344,0.1943359,-0.6875
356,-0.1875,-0.8125,-0.0625,-0.05029297,0.03076172,0.9750977,0.02539063,0.1933594,-0.6918945
357,0.4375,-0.8125,-1,-0.06591797,0.03076172,0.9868164,0.02539063,0.1933594,-0.6918945
359,0.1875,-0.625,-0.4375,-0.07373047,0.04248047,0.9750977,0.02539063,0.1933594,-0.6918945
360,0.3125,-0.625,-0.6875,-0.05029297,0.04248047,0.9829102,0.02099609,0.1933594,-0.6904297
362,0,-0.625,-0.375,-0.04638672,0.05029297,0.9868164,0.02099609,0.1933594,-0.6904297
363,-0.3125,-0.375,-0.4375,-0.05419922,0.01123047,0.9555664,0.02099609,0.1933594,-0.6904297
365,0,-0.375,-0.375,-0.04248047,0.03466797,0.9633789,0.02099609,0.1933594,-0.6904297
366,0.375,-0.5,-0.5,-0.05810547,0.03076172,0.9672852,0.02197266,0.1967773,-0.6850586
368,0,0.1875,-0.625,-0.06201172,0.05029297,0.9555664,0.02197266,0.1967773,-0.6850586
369,0.5625,0,-0.75,-0.05419922,0.05419922,0.9477539,0.02197266,0.1967773,-0.6850586
371,0.5,0.1875,-0.6875,-0.05419922,0.04638672,0.9516602,0.01855469,0.1967773,-0.6821289
372,0.6875,-0.25,-0.625,-0.06201172,0.02685547,0.9829102,0.01855469,0.1967773,-0.6821289
374,0,0,-0.8125,-0.05810547,0.03466797,0.9672852,0.01855469,0.1967773,-0.6821289
375,0.375,0.75,-0.6875,-0.04638672,0.03076172,0.9829102,0.02441406,0.1953125,-0.6918945
377,0.4375,0.5625,-1.1875,-0.05029297,0.05029297,0.9594727,0.02441406,0.1953125,-0.6918945
378,0.3125,0.5,-0.6875,-0.05029297,0.05029297,0.9711914,0.02441406,0.1953125,-0.6918945
380,0.8125,0.625,-1.125,-0.04638672,0.02685547,0.9477539,0.02441406,0.1953125,-0.6918945
381,1,0.5,-1.125,-0.06201172,0.01513672,0.9829102,0.02441406,0.1953125,-0.6918945
383,0.8125,0.1875,-1,-0.03857422,0.03857422,0.9868164,0.02441406,0.1953125,-0.6918945
384,1.125,1,-0.6875,-0.05419922,0.01123047,0.9633789,0.02441406,0.1953125,-0.6918945
386,1.1875,0.5,-1.25,-0.06591797,0.03076172,0.9711914,0.02099609,0.1992188,-0.6821289
387,1.3125,0.625,-1.1875,-0.06982422,0.05419922,0.9594727,0.02099609,0.1992188,-0.6821289
389,0.8125,0.9375,-1,-0.05029297,0.02685547,0.9829102,0.02099609,0.1992188,-0.6821289
392,0.75,0.25,-1.125,-0.05810547,0.05419922,0.9555664,0.0234375,0.2001953,-0.6835938
394,0.8125,0.125,-1.4375,-0.08154297,0.03076172,0.9868164,0.0234375,0.2001953,-0.6835938
395,0.4375,0.25,-0.875,-0.05810547,0.02294922,0.9868164,0.0234375,0.2001953,-0.6835938
397,0.4375,0.375,-1.1875,-0.06201172,0.04248047,0.9711914,0.0234375,0.2001953,-0.6835938
398,0.4375,0.375,-0.75,-0.06201172,0.04248047,0.9829102,0.0234375,0.2001953,-0.6835938
400,0.8125,0.375,-1.125,-0.06982422,0.03076172,0.9868164,0.0234375,0.2001953,-0.6835938
401,0.4375,-0.1875,-1.4375,-0.05419922,0.02685547,0.9790039,0.0234375,0.2001953,-0.6835938
403,0.5625,0.4375,-0.5,-0.05419922,0.01904297,0.9711914,0.03125,0.190918,-0.6889648
404,0.1875,0.125,-1.125,-0.05810547,0.03466797,0.9555664,0.03125,0.190918,-0.6889648
406,0.5625,0,-0.875,-0.04638672,0.02685547,0.9633789,0.03125,0.190918,-0.6889648
407,0.75,0.25,-1.3125,-0.05029297,0.05419922,0.9907227,0.01855469,0.1953125,-0.6875
409,0.375,-0.625,-0.75,-0.05810547,0.03857422,0.9711914,0.01855469,0.1953125,-0.6875
410,0.6875,0.25,-1.0625,-0.05419922,0.03857422,0.9868164,0.01855469,0.1953125,-0.6875
412,1.0625,0,-0.5625,-0.06201172,0.03076172,0.9555664,0.02441406,0.1992188,-0.6875
413,0.8125,0.375,-1.1875,-0.06982422,0.01513672,0.9633789,0.02441406,0.1992188,-0.6875
415,0.9375,0.1875,-1,-0.06201172,0.01513672,0.9633789,0.02441406,0.1992188,-0.6875
416,0.5625,0.25,-1.3125,-0.04638672,0.03466797,0.9516602,0.02441406,0.1992188,-0.6875
418,0.5,-0.1875,-0.4375,-0.04248047,0.03076172,0.9868164,0.02539063,0.1953125,-0.6865234
419,0.375,0.375,-0.75,-0.04248047,0.03076172,0.9516602,0.02539063,0.1953125,-0.6865234
421,0.75,0.0625,-1.125,-0.04638672,0.05029297,0.9790039,0.02539063,0.1953125,-0.6865234
422,0.9375,0.0625,-0.625,-0.06201172,0.01123047,0.9829102,0.02685547,0.1918945,-0.6875
424,0.3125,0,-0.5625,-0.06982422,0.04248047,0.9711914,0.02685547,0.1918945,-0.6875
425,0.6875,0.125,-1.0625,-0.05419922,0.04248047,0.9633789,0.02685547,0.1918945,-0.6875
427,1.0625,0,-0.625,-0.03857422,0.05810547,0.9829102,0.02539063,0.1977539,-0.6850586
428,0.25,-0.0625,-0.6875,-0.06591797,0.03857422,0.9829102,0.02539063,0.1977539,-0.6850586
430,0.3125,0.375,-0.3125,-0.04638672,0.04248047,0.9516602,0.02539063,0.1977539,-0.6850586
431,1.375,0.4375,-1.25,-0.06591797,0.04248047,0.9633789,0.02539063,0.1977539,-0.6850586
433,0.125,0.625,-1,-0.05419922,0.01123047,0.9672852,0.02880859,0.1860352,-0.6962891
434,0.75,0.25,-0.6875,-0.05810547,0.03466797,0.9829102,0.02880859,0.1860352,-0.6962891
436,0.625,0,-0.375,-0.06201172,0.04248047,0.9829102,0.02880859,0.1860352,-0.6962891
437,0.4375,0.125,-0.6875,-0.05419922,0.04638672,0.9985352,0.02441406,0.1977539,-0.6865234
439,0.3125,0.4375,-0.4375,-0.06591797,0.03466797,0.9594727,0.02441406,0.1977539,-0.6865234
440,0.8125,0.3125,-0.875,-0.03857422,0.05810547,0.9672852,0.02441406,0.1977539,-0.6865234
442,1.1875,0.6875,-0.9375,-0.05029297,0.03076172,0.9829102,0.02685547,0.2001953,-0.6791992
443,0.625,0.6875,-0.625,-0.05810547,0.05810547,0.9750977,0.02685547,0.2001953,-0.6791992
445,1.3125,0.6875,-0.875,-0.06201172,0.04638672,0.9399414,0.02685547,0.2001953,-0.6791992
446,0.8125,0.375,-0.5625,-0.06201172,0.03857422,0.9672852,0.02685547,0.2001953,-0.6791992
448,1,0.1875,-0.875,-0.05419922,0.03466797,0.9829102,0.02685547,0.2001953,-0.6791992
449,1.375,0.75,-1,-0.05810547,0.02685547,0.9555664,0.02685547,0.2001953,-0.6791992
451,0.3125,0.4375,-1,-0.05419922,0.01513672,0.9829102,0.02685547,0.2001953,-0.6791992
452,0.625,0.25,-0.6875,-0.06982422,0.04248047,0.9829102,0.03027344,0.1894531,-0.6889648
454,0.3125,0.75,-1.125,-0.05419922,0.03076172,0.9750977,0.03027344,0.1894531,-0.6889648
455,0.875,0.5,-1.0625,-0.06201172,0.03857422,0.9672852,0.03027344,0.1894531,-0.6889648
457,1.0625,0.3125,-0.9375,-0.06982422,0.04248047,0.9633789,0.02539063,0.1933594,-0.6918945
458,0.625,0.375,-0.8125,-0.06201172,0.03466797,0.9829102,0.02539063,0.1933594,-0.6918945
460,0.1875,-0.0625,-0.6875,-0.05419922,0.03857422,0.9711914,0.02539063,0.1933594,-0.6918945
461,0.8125,-0.1875,-0.5,-0.06591797,0.01513672,0.9672852,0.02539063,0.1933594,-0.6918945
463,0.3125,-0.6875,-0.6875,-0.06591797,0.04248047,0.9829102,0.02539063,0.1933594,-0.6918945
464,0.5,-0.5625,-0.5625,-0.05419922,0.03076172,0.9829102,0.02539063,0.1933594,-0.6918945
466,0.9375,0.0625,-0.375,-0.04638672,0.04248047,0.9946289,0.02539063,0.1933594,-0.6918945
467,0.4375,-0.25,-1,-0.07373047,0.03076172,0.9829102,0.02783203,0.1884766,-0.6875
469,0.5625,0,-0.6875,-0.06591797,0.04638672,0.9750977,0.02783203,0.1884766,-0.6875
470,0.1875,0.375,-0.4375,-0.04638672,0.01513672,0.9711914,0.02783203,0.1884766,-0.6875
472,0,0.625,-1.1875,-0.05029297,0.03076172,0.9829102,0.0234375,0.1943359,-0.6806641
473,0.75,-0.25,-0.25,-0.05810547,0.05029297,0.9633789,0.0234375,0.1943359,-0.6806641
475,0.625,0,-0.9375,-0.07373047,0.04248047,0.9868164,0.0234375,0.1943359,-0.6806641
476,0.375,-0.1875,-0.6875,-0.06201172,0.02294922,0.9711914,0.0234375,0.1933594,-0.6850586
478,0.1875,0,-0.6875,-0.06201172,0.01513672,0.9672852,0.0234375,0.1933594,-0.6850586
479,0.75,-0.125,-0.75,-0.04638672,0.03076172,0.9907227,0.0234375,0.1933594,-0.6850586
481,0.25,-0.25,-1,-0.07373047,0.01513672,0.9594727,0.0234375,0.1933594,-0.6850586
482,0.125,-0.125,-1.125,-0.05419922,0.04248047,0.9672852,0.02441406,0.1918945,-0.675293
484,0.5,-0.0625,-0.875,-0.06201172,0.03466797,0.9516602,0.02441406,0.1918945,-0.675293
485,0.4375,0.125,-0.375,-0.07373047,0.03857422,0.9829102,0.02441406,0.1918945,-0.675293
487,0.1875,0.375,-0.8125,-0.05029297,0.03076172,0.9946289,0.02783203,0.1953125,-0.6904297
489,1,0.0625,-0.6875,-0.05810547,0.02685547,0.9672852,0.02783203,0.1953125,-0.6904297
491,0.625,0.1875,-0.6875,-0.05810547,0.03466797,0.9829102,0.02783203,0.1953125,-0.6904297
492,0.375,0.4375,-0.6875,-0.06591797,0.02294922,0.9750977,0.02099609,0.1943359,-0.6904297
494,0.75,0.4375,-0.4375,-0.08154297,0.03857422,0.9711914,0.02099609,0.1943359,-0.6904297
495,0.625,-0.125,-0.3125,-0.05029297,0.03466797,0.9868164,0.02099609,0.1943359,-0.6904297
497,0.125,0,-0.1875,-0.05419922,0.04248047,0.9672852,0.02099609,0.1943359,-0.6904297
498,0.5625,0.4375,-0.8125,-0.03857422,0.03076172,0.9711914,0.02783203,0.1943359,-0.6972656
500,0.1875,0.125,-0.375,-0.05810547,0.03466797,0.9829102,0.02783203,0.1943359,-0.6972656
501,0.625,-0.0625,-0.1875,-0.05419922,0.02685547,0.9750977,0.02783203,0.1943359,-0.6972656
503,0.1875,0,-0.6875,-0.06591797,0.03466797,0.9868164,0.02685547,0.1967773,-0.6918945
504,0.125,-0.5625,-0.1875,-0.04248047,0.03857422,0.9711914,0.02685547,0.1967773,-0.6918945
506,0.375,-0.375,-0.8125,-0.06591797,0.03076172,0.9829102,0.02685547,0.1967773,-0.6918945
507,0.5625,-0.25,-0.625,-0.07373047,0.03466797,0.9672852,0.0234375,0.1884766,-0.6875
509,0.375,0,-1,-0.06201172,0.03076172,0.9477539,0.0234375,0.1884766,-0.6875
510,0.875,0.3125,-0.75,-0.06591797,0.03076172,0.9594727,0.0234375,0.1884766,-0.6875
512,0.5,-0.1875,-0.5,-0.06201172,0.01513672,0.9633789,0.0234375,0.1884766,-0.6875
513,0.5,-0.5,-0.625,-0.06201172,0.05029297,0.9750977,0.01953125,0.1933594,-0.6904297
515,0.1875,-0.0625,-0.3125,-0.07373047,0.04248047,0.9868164,0.01953125,0.1933594,-0.6904297
516,0.4375,0,-0.625,-0.06201172,0.03076172,0.9907227,0.01953125,0.1933594,-0.6904297
518,0.4375,-0.5625,-0.875,-0.04638672,0.01513672,0.9829102,0.02880859,0.1977539,-0.6821289
519,0.125,-0.375,-0.9375,-0.06982422,0.01513672,0.9829102,0.02880859,0.1977539,-0.6821289
521,0.6875,-0.375,-0.5625,-0.06591797,0.03466797,0.9829102,0.02880859,0.1977539,-0.6821289
522,0.375,0.0625,-0.875,-0.05810547,0.03857422,0.9672852,0.02441406,0.1933594,-0.6962891
524,0.5,0,-0.875,-0.08544922,0.01513672,0.9633789,0.02441406,0.1933594,-0.6962891
525,-0.0625,0.1875,-0.25,-0.08935547,0.03076172,0.9829102,0.02441406,0.1933594,-0.6962891
527,0.3125,-0.375,-0.8125,-0.03857422,0.03466797,0.9516602,0.02441406,0.1933594,-0.6962891
528,0.75,0.1875,-0.4375,-0.06201172,0.01513672,0.9985352,0.02441406,0.1933594,-0.6962891
530,0.1875,-0.375,-0.75,-0.05029297,0.04248047,0.9438477,0.02441406,0.1933594,-0.6962891
531,0.625,0.125,-1.0625,-0.06201172,0.03857422,0.9868164,0.02441406,0.1933594,-0.6962891
533,0.5625,0.0625,-0.25,-0.08154297,0.03076172,0.9633789,0.02099609,0.190918,-0.6889648
534,0.625,0.1875,-0.25,-0.05810547,0.05029297,0.9711914,0.02099609,0.190918,-0.6889648
536,0.25,0.1875,-0.25,-0.05029297,0.04248047,0.9672852,0.02099609,0.190918,-0.6889648
537,0.1875,-0.0625,-0.5625,-0.05810547,0.05029297,0.9555664,0.0234375,0.1967773,-0.6821289
539,0.1875,-0.125,-0.625,-0.05810547,0.02294922,0.9672852,0.0234375,0.1967773,-0.6821289
540,0,0.1875,-0.6875,-0.04638672,0.04638672,0.9555664,0.0234375,0.1967773,-0.6821289
542,0,0,-0.6875,-0.08154297,0.04638672,0.9750977,0.02880859,0.2001953,-0.6918945
543,-0.1875,-0.25,-0.8125,-0.05029297,0.03857422,0.9672852,0.02880859,0.2001953,-0.6918945
545,0.375,0.25,-0.5,-0.06591797,0.05419922,0.9829102,0.02880859,0.2001953,-0.6918945
546,0.125,0.125,-0.3125,-0.06591797,0.05029297,0.9868164,0.02880859,0.2001953,-0.6918945
548,0.0625,0,-0.3125,-0.05029297,0.03857422,0.9711914,0.02539063,0.1860352,-0.6850586
549,-0.1875,0.125,-0.5,-0.05810547,0.05419922,0.9868164,0.02539063,0.1860352,-0.6850586
551,0.4375,-0.25,-0.5625,-0.04248047,0.03076172,0.9633789,0.02539063,0.1860352,-0.6850586
552,0.8125,0,-0.375,-0.04638672,0.04248047,0.9750977,0.02783203,0.1967773,-0.6850586
554,0,0.375,-0.4375,-0.06201172,0.02685547,0.9516602,0.02783203,0.1967773,-0.6850586
555,0.125,-0.0625,-0.5,-0.03466797,0.05810547,0.9829102,0.02783203,0.1967773,-0.6850586
557,0.5,-0.125,-0.6875,-0.04638672,0.03076172,0.9829102,0.02880859,0.1875,-0.6875
558,0.375,0.1875,-0.5625,-0.06982422,0.04248047,0.9750977,0.02880859,0.1875,-0.6875
560,0.3125,0,-0.6875,-0.05029297,0.03466797,0.9711914,0.02880859,0.1875,-0.6875
561,0.4375,-0.1875,-0.75,-0.05029297,0.01513672,0.9868164,0.02880859,0.1875,-0.6875
563,0.625,0.125,-0.375,-0.04638672,0.04638672,0.9790039,0.02441406,0.1953125,-0.6835938
564,0.125,-0.0625,-0.8125,-0.05419922,0.04248047,0.9711914,0.02441406,0.1953125,-0.6835938
566,0.25,0.25,-0.75,-0.05029297,0.04638672,0.9477539,0.02441406,0.1953125,-0.6835938
567,0.25,0,-0.5,-0.05810547,0.04638672,0.9672852,0.02197266,0.1933594,-0.6875
569,0.1875,-0.0625,-0.5625,-0.05810547,0.04638672,0.9477539,0.02197266,0.1933594,-0.6875
570,0.5625,-0.0625,-0.3125,-0.05419922,0.03076172,0.9555664,0.02197266,0.1933594,-0.6875
572,0.0625,-0.3125,-0.6875,-0.05810547,0.04248047,0.9711914,0.03466797,0.1933594,-0.6948242
573,0.4375,0.25,-0.5,-0.06201172,0.02685547,0.9711914,0.03466797,0.1933594,-0.6948242
575,0,0,-0.6875,-0.05810547,0.06201172,0.9672852,0.03466797,0.1933594,-0.6948242
576,0.1875,-0.3125,-0.625,-0.03857422,0.03466797,0.9555664,0.03466797,0.1933594,-0.6948242
578,0.6875,-0.3125,-0.625,-0.05810547,0.04248047,0.9672852,0.02783203,0.1918945,-0.6875
579,0.25,-0.4375,-0.6875,-0.04638672,0.03076172,0.9672852,0.02783203,0.1918945,-0.6875
581,0.5,0,-0.625,-0.05029297,0.02685547,0.9750977,0.02783203,0.1918945,-0.6875
582,0.625,-0.5,-0.5625,-0.05419922,0.03076172,0.9750977,0.02783203,0.1884766,-0.6806641
584,0.5,-0.3125,-1.25,-0.06591797,0.03857422,0.9633789,0.02783203,0.1884766,-0.6806641
586,-0.125,0.25,0,-0.07373047,0.04638672,0.9516602,0.02783203,0.1884766,-0.6806641
588,0.5,-0.125,-0.75,-0.06591797,0.04248047,0.9711914,0.02783203,0.190918,-0.6889648
589,0.375,0.0625,-0.375,-0.05419922,0.02685547,0.9516602,0.02783203,0.190918,-0.6889648
591,0.375,-0.1875,-0.625,-0.05810547,0.04248047,0.9750977,0.02783203,0.190918,-0.6889648
592,0.1875,-0.125,-0.5625,-0.05419922,0.03857422,0.9555664,0.02783203,0.190918,-0.6889648
594,0.25,0.1875,0,-0.07373047,0.03076172,0.9750977,0.02783203,0.190918,-0.6889648
595,0.1875,1.125,-0.6875,-0.05810547,0.03076172,0.9672852,0.02783203,0.190918,-0.6889648
597,0.5,-0.6875,-0.1875,-0.05810547,0.02685547,0.9829102,0.02783203,0.190918,-0.6889648
598,0.1875,0.1875,-0.5,-0.05810547,0.04248047,0.9829102,0.03027344,0.1953125,-0.6875
600,0.375,0.125,-0.625,-0.06591797,0.04248047,0.9790039,0.03027344,0.1953125,-0.6875
601,0.5625,0,-0.375,-0.06201172,0.03076172,0.9672852,0.03027344,0.1953125,-0.6875
603,0.375,0.3125,-0.6875,-0.06201172,0.03076172,0.9907227,0.03027344,0.1860352,-0.6875
604,1.0625,0.0625,-0.625,-0.06982422,0.04248047,0.9672852,0.03027344,0.1860352,-0.6875
606,0.75,-0.125,-0.75,-0.06591797,0.04248047,0.9594727,0.03027344,0.1860352,-0.6875
607,1.0625,-0.125,-0.75,-0.06201172,0.05810547,0.9594727,0.02197266,0.1933594,-0.6918945
609,0.6875,0.5,-0.5,-0.06591797,0.04638672,0.9711914,0.02197266,0.1933594,-0.6918945
610,0.8125,0.1875,-0.9375,-0.06591797,0.05029297,0.9829102,0.02197266,0.1933594,-0.6918945
612,0.75,0.5,-0.625,-0.05419922,0.04638672,0.9868164,0.02197266,0.1933594,-0.6918945
613,0.625,0.5625,-0.8125,-0.06201172,0.04638672,0.9907227,0.02783203,0.1967773,-0.6821289
615,0.8125,0.5,-1,-0.05419922,0.01513672,0.9672852,0.02783203,0.1967773,-0.6821289
616,0.9375,0.4375,-0.75,-0.05419922,0.03466797,0.9750977,0.02783203,0.1967773,-0.6821289
618,0,-0.1875,-0.75,-0.05029297,0.03076172,0.9829102,0.02685547,0.1918945,-0.6835938
619,0.75,0,-0.9375,-0.05419922,0.03857422,0.9594727,0.02685547,0.1918945,-0.6835938
621,0.75,0.3125,-0.875,-0.05029297,0.01513672,0.9633789,0.02685547,0.1918945,-0.6835938
622,0.875,-0.125,-0.0625,-0.05029297,0.05029297,0.9946289,0.03027344,0.190918,-0.6889648
624,0.375,0,-0.625,-0.06201172,0.01513672,0.9829102,0.03027344,0.190918,-0.6889648
625,0.5625,0.5,-0.3125,-0.05419922,0.01513672,0.9594727,0.03027344,0.190918,-0.6889648
627,0.3125,-0.125,-0.75,-0.04638672,0.03466797,0.9633789,0.03027344,0.190918,-0.6889648
628,0.3125,-0.0625,-0.5625,-0.06201172,0.03076172,0.9750977,0.03369141,0.1918945,-0.6865234
630,0.625,-0.3125,-0.1875,-0.05029297,0.03857422,0.9555664,0.03369141,0.1918945,-0.6865234
631,0.375,-0.75,-0.75,-0.06201172,0.03857422,0.9790039,0.03369141,0.1918945,-0.6865234
633,0.5625,-0.5,-0.75,-0.05810547,0.03076172,0.9829102,0.02783203,0.1953125,-0.6865234
634,0.375,-0.0625,-0.3125,-0.04638672,0.01513672,0.9829102,0.02783203,0.1953125,-0.6865234
636,0.125,-0.5,-0.75,-0.06591797,0.05419922,0.9829102,0.02783203,0.1953125,-0.6865234
637,0.375,0.1875,-0.75,-0.05419922,0.01513672,0.9829102,0.02783203,0.1875,-0.6904297
639,0.5625,-0.1875,-0.75,-0.06982422,0.03857422,0.9633789,0.02783203,0.1875,-0.6904297
640,0.4375,-0.0625,-0.125,-0.06591797,0.04638672,0.9711914,0.02783203,0.1875,-0.6904297
642,0.875,-0.3125,-0.375,-0.05029297,0.03076172,0.9829102,0.02783203,0.1875,-0.6904297
643,0.375,0,-0.625,-0.05419922,0.03466797,0.9594727,0.02783203,0.190918,-0.6791992
645,0.125,0.3125,-0.5625,-0.04638672,0.03857422,0.9829102,0.02783203,0.190918,-0.6791992
646,0.75,-0.625,-0.625,-0.06982422,0.03466797,0.9633789,0.02783203,0.190918,-0.6791992
648,0.4375,0.4375,-0.75,-0.06591797,0.05029297,0.9672852,0.03369141,0.1933594,-0.6875
649,0.3125,0,-0.75,-0.04638672,0.03466797,0.9790039,0.03369141,0.1933594,-0.6875
651,0.1875,-0.0625,-0.6875,-0.05419922,0.02294922,0.9672852,0.03369141,0.1933594,-0.6875
652,0.3125,0.5,-0.75,-0.06982422,0.04638672,0.9829102,0.02099609,0.1967773,-0.6918945
654,0.4375,-0.125,-0.125,-0.04638672,0.03076172,0.9711914,0.02099609,0.1967773,-0.6918945
655,-0.375,-0.5,-0.5,-0.08935547,0.04248047,0.9633789,0.02099609,0.1967773,-0.6918945
657,0.25,-0.125,-0.25,-0.06982422,0.04248047,0.9633789,0.02099609,0.1967773,-0.6918945
658,0.3125,-0.4375,-0.25,-0.05419922,0.05419922,0.9633789,0.02099609,0.1967773,-0.6918945
660,0.5,0,-0.5625,-0.06982422,0.03857422,0.9868164,0.02099609,0.1967773,-0.6918945
661,0.625,-0.625,-0.9375,-0.06591797,0.02685547,0.9829102,0.02099609,0.1967773,-0.6918945
663,0.1875,-0.375,-0.5625,-0.05029297,0.04248047,0.9868164,0.0234375,0.1977539,-0.6962891
664,0.25,0.25,-0.8125,-0.06591797,0.02685547,0.9516602,0.0234375,0.1977539,-0.6962891
666,-0.125,0,-0.25,-0.06982422,0.03466797,0.9555664,0.0234375,0.1977539,-0.6962891
667,0.3125,-0.5625,-0.5,-0.05810547,0.03466797,0.9829102,0.0234375,0.1933594,-0.6904297
669,0.1875,0,-0.75,-0.05029297,0.03857422,0.9633789,0.0234375,0.1933594,-0.6904297
670,0.375,-0.125,-0.5,-0.05029297,0.05810547,0.9829102,0.0234375,0.1933594,-0.6904297
672,0.0625,-0.3125,-0.625,-0.05810547,0.04638672,0.9711914,0.0234375,0.1933594,-0.6904297
673,0.4375,0,-0.625,-0.05029297,0.02294922,0.9829102,0.0234375,0.1933594,-0.6904297
675,0,0.3125,-0.375,-0.08154297,0.03076172,0.9555664,0.0234375,0.1933594,-0.6904297
676,0.125,-0.5,-0.375,-0.06201172,0.03076172,0.9868164,0.0234375,0.1933594,-0.6904297
678,0.8125,0.1875,-0.25,-0.05419922,0.05029297,0.9711914,0.0234375,0.190918,-0.6850586
679,0.25,-0.3125,-0.75,-0.06591797,0.03076172,0.9555664,0.0234375,0.190918,-0.6850586
681,0.5625,-0.25,-0.5625,-0.06982422,0.03076172,0.9594727,0.0234375,0.190918,-0.6850586
683,0.5625,0.25,-0.0625,-0.06591797,0.01513672,0.9946289,0.03613281,0.1894531,-0.6865234
685,0.6875,-0.0625,-0.5625,-0.05419922,0.03076172,0.9868164,0.03613281,0.1894531,-0.6865234
686,0.1875,-0.375,-0.4375,-0.05810547,0.03857422,0.9829102,0.03613281,0.1894531,-0.6865234
688,0,0.1875,-0.625,-0.05029297,0.05029297,0.9711914,0.02441406,0.190918,-0.6777344
689,0,0.25,-0.9375,-0.06982422,0.05029297,0.9829102,0.02441406,0.190918,-0.6777344
691,0.5,0.1875,-0.4375,-0.08154297,0.03076172,0.9594727,0.02441406,0.190918,-0.6777344
692,0.375,-0.5,-1.125,-0.05029297,0.03076172,0.9672852,0.02441406,0.190918,-0.6777344
694,0.5625,-0.3125,-0.5,-0.06201172,0.03466797,0.9633789,0.02099609,0.1992188,-0.6850586
695,0,0.125,-0.25,-0.06591797,0.03857422,0.9672852,0.02099609,0.1992188,-0.6850586
697,0,-0.5625,-0.4375,-0.04248047,0.03857422,0.9750977,0.02099609,0.1992188,-0.6850586
698,0.75,-0.0625,-0.1875,-0.05810547,0.04248047,0.9516602,0.03271484,0.1953125,-0.6850586
700,0,0.0625,0,-0.05029297,0.03076172,0.9750977,0.03271484,0.1953125,-0.6850586
701,0,-0.0625,-0.375,-0.08154297,0.03857422,0.9477539,0.03271484,0.1953125,-0.6850586
703,0.0625,-0.375,-0.375,-0.05810547,0.03466797,0.9829102,0.02539063,0.1884766,-0.6791992
704,0.125,-0.1875,-0.375,-0.05810547,0.04638672,0.9633789,0.02539063,0.1884766,-0.6791992
706,-0.0625,-0.125,-0.8125,-0.07373047,0.03857422,0.9985352,0.02539063,0.1884766,-0.6791992
707,0.25,-0.5625,-0.8125,-0.06591797,0.03857422,0.9868164,0.02539063,0.1884766,-0.6791992
709,0.3125,-0.5625,-0.9375,-0.05419922,0.03466797,0.9829102,0.02539063,0.190918,-0.6865234
710,0,0.0625,-0.25,-0.04638672,0.04248047,0.9711914,0.02539063,0.190918,-0.6865234
712,0.1875,0,-0.625,-0.06201172,0.03076172,0.9633789,0.02539063,0.190918,-0.6865234
713,0.0625,0,-0.875,-0.05029297,0.03857422,0.9594727,0.02880859,0.190918,-0.6918945
715,0.375,0,-0.6875,-0.05810547,0.03076172,0.9829102,0.02880859,0.190918,-0.6918945
716,0.4375,-0.5,-0.125,-0.08935547,0.03857422,0.9750977,0.02880859,0.190918,-0.6918945
718,0.625,-0.3125,-0.5,-0.05810547,0.03076172,0.9321289,0.01611328,0.1967773,-0.6918945
719,0.75,-0.625,-0.625,-0.04638672,0.05029297,0.9750977,0.01611328,0.1967773,-0.6918945
721,0.0625,-0.125,-0.1875,-0.05810547,0.05029297,0.9672852,0.01611328,0.1967773,-0.6918945
722,-0.0625,0,-0.375,-0.05419922,0.04638672,0.9633789,0.01611328,0.1967773,-0.6918945
724,-0.125,0.0625,-0.4375,-0.04638672,0.05029297,0.9790039,0.01611328,0.1967773,-0.6918945
725,0.1875,0,-0.125,-0.06591797,0.03076172,0.9790039,0.01611328,0.1967773,-0.6918945
727,0.5,0,-0.5,-0.04638672,0.03076172,0.9477539,0.01611328,0.1967773,-0.6918945
728,0.5,-0.25,-0.5,-0.05029297,0.03857422,0.9829102,0.02539063,0.1943359,-0.6918945
730,0.5,-0.4375,-0.1875,-0.06201172,0.05029297,0.9907227,0.02539063,0.1943359,-0.6918945
731,0.5625,-0.125,-0.4375,-0.05029297,0.03857422,0.9750977,0.02539063,0.1943359,-0.6918945
733,0.3125,-0.5,-0.125,-0.05810547,0.03466797,0.9672852,0.02441406,0.1918945,-0.6865234
734,0.5625,-0.5625,-0.375,-0.05419922,0.05029297,0.9594727,0.02441406,0.1918945,-0.6865234
736,0,-0.125,-0.3125,-0.05810547,0.03857422,0.9633789,0.02441406,0.1918945,-0.6865234
737,0.5,-0.5625,-0.0625,-0.07763672,0.03076172,0.9672852,0.02441406,0.1918945,-0.6865234
739,0.1875,-0.25,-0.1875,-0.06201172,0.03857422,0.9711914,0.02441406,0.1918945,-0.6865234
740,0.0625,-0.125,-0.25,-0.05419922,0.03466797,0.9633789,0.02441406,0.1918945,-0.6865234
742,0.625,-0.1875,-0.625,-0.05810547,0.03076172,0.9829102,0.02441406,0.1918945,-0.6865234
743,-0.125,-0.25,-0.125,-0.07373047,0.03857422,0.9829102,0.02783203,0.190918,-0.6821289
745,0.5,-0.3125,-0.5,-0.05810547,0.05029297,0.9711914,0.02783203,0.190918,-0.6821289
746,0.5625,0.3125,-0.25,-0.07373047,0.01904297,0.9750977,0.02783203,0.190918,-0.6821289
748,0,-0.5,-0.25,-0.07373047,0.01513672,0.9868164,0.02197266,0.1943359,-0.6875
749,0.125,0,-0.375,-0.06201172,0.03076172,0.9633789,0.02197266,0.1943359,-0.6875
751,0,-0.4375,-0.5,-0.04248047,0.04248047,0.9477539,0.02197266,0.1943359,-0.6875
752,0.3125,0,-0.375,-0.05419922,0.01123047,0.9829102,0.02197266,0.1953125,-0.6821289
754,0.4375,-0.5625,-0.375,-0.05419922,0.03857422,0.9829102,0.02197266,0.1953125,-0.6821289
755,0,-0.5625,-0.5625,-0.05810547,0.01513672,0.9711914,0.02197266,0.1953125,-0.6821289
757,0.125,-0.375,-0.4375,-0.06201172,0.03857422,0.9633789,0.02197266,0.1953125,-0.6821289
758,-0.125,-0.0625,-0.3125,-0.03857422,0.03466797,0.9594727,0.02783203,0.1977539,-0.6918945
760,0,-0.5,-0.625,-0.05029297,0.02685547,0.9672852,0.02783203,0.1977539,-0.6918945
761,0,-0.8125,-0.3125,-0.07373047,0.04248047,0.9829102,0.02783203,0.1977539,-0.6918945
763,0.375,-0.125,-0.1875,-0.05810547,0.03466797,0.9711914,0.02880859,0.1884766,-0.6791992
764,-0.125,-0.125,-0.4375,-0.06201172,0.03857422,0.9438477,0.02880859,0.1884766,-0.6791992
766,0.0625,-0.8125,-0.0625,-0.06982422,0.05029297,0.9829102,0.02880859,0.1884766,-0.6791992
767,0,-0.8125,0.25,-0.05419922,0.01513672,0.9907227,0.02880859,0.190918,-0.6865234
769,-0.1875,-0.25,-0.5625,-0.05810547,0.03466797,0.9750977,0.02880859,0.190918,-0.6865234
770,0.125,-0.125,-0.5,-0.07373047,0.01513672,0.9633789,0.02880859,0.190918,-0.6865234
772,-0.0625,-0.8125,0.0625,-0.05419922,0.02685547,0.9594727,0.02880859,0.190918,-0.6865234
773,0.5,-0.625,-0.375,-0.05810547,0.04248047,0.9829102,0.02783203,0.1943359,-0.6875
775,0.375,-0.25,-0.6875,-0.05029297,0.04248047,0.9907227,0.02783203,0.1943359,-0.6875
776,0.25,-0.5,-0.1875,-0.05029297,0.04248047,0.9711914,0.02783203,0.1943359,-0.6875
778,0.5,-0.0625,-0.6875,-0.08935547,0.03466797,0.9633789,0.02441406,0.1918945,-0.6850586
781,-0.5625,-0.1875,-0.125,-0.06201172,0.03076172,0.9790039,0.02441406,0.1918945,-0.6850586
783,0.1875,-0.3125,-0.3125,-0.04638672,0.03076172,0.9750977,0.02441406,0.1918945,-0.6850586
784,0.375,-0.0625,-0.3125,-0.05810547,0.03857422,0.9829102,0.02441406,0.1933594,-0.6918945
786,0.1875,0.0625,-0.0625,-0.07373047,0.04248047,0.9868164,0.02441406,0.1933594,-0.6918945
787,0.25,0,-0.375,-0.06201172,0.04638672,0.9829102,0.02441406,0.1933594,-0.6918945
789,-0.25,-0.25,-0.4375,-0.05810547,0.02685547,0.9829102,0.02441406,0.1933594,-0.6918945
790,0.5,-0.6875,-0.5625,-0.05810547,0.05029297,0.9829102,0.02685547,0.1967773,-0.6904297
792,0.0625,-0.5,-0.25,-0.05419922,0.03076172,0.9750977,0.02685547,0.1967773,-0.6904297
793,0,-0.5625,-0.3125,-0.06591797,0.03076172,0.9672852,0.02685547,0.1967773,-0.6904297
795,0.0625,-0.375,-0.3125,-0.05419922,0.01513672,0.9750977,0.0234375,0.1943359,-0.6865234
796,0.25,-0.0625,-0.5,-0.06982422,0.007324219,0.9907227,0.0234375,0.1943359,-0.6865234
798,0.5625,0.1875,-0.3125,-0.06591797,0.03466797,0.9868164,0.0234375,0.1943359,-0.6865234
799,0.25,-0.4375,-0.125,-0.05419922,0.02685547,0.9829102,0.02685547,0.1875,-0.6835938
801,0.625,-0.375,0,-0.03857422,0.02685547,0.9829102,0.02685547,0.1875,-0.6835938
802,0.1875,-0.625,-0.625,-0.04638672,0.03466797,0.9985352,0.02685547,0.1875,-0.6835938
804,0.5,-0.625,-0.25,-0.06201172,0.03466797,0.9672852,0.02685547,0.1875,-0.6835938
805,0.5625,-0.125,-0.625,-0.06591797,0.01123047,0.9829102,0.02685547,0.1875,-0.6835938
807,0,0,0,-0.08154297,0.02685547,0.9516602,0.02685547,0.1875,-0.6835938
808,0,-0.0625,-0.3125,-0.05419922,0.01513672,0.9633789,0.02685547,0.1875,-0.6835938
810,0.8125,0,-0.6875,-0.05029297,0.05419922,0.9829102,0.03613281,0.1943359,-0.6904297
811,0.625,-0.0625,-0.5,-0.06591797,0.03076172,0.9711914,0.03613281,0.1943359,-0.6904297
813,0,-0.1875,-0.25,-0.04248047,0.05810547,0.9829102,0.03613281,0.1943359,-0.6904297
814,0.0625,-0.5,-0.25,-0.08154297,0.05029297,0.9711914,0.03027344,0.2001953,-0.6904297
816,0.0625,-0.5,-0.375,-0.06201172,0.03076172,0.9594727,0.03027344,0.2001953,-0.6904297
817,0.375,-0.625,-0.1875,-0.06591797,0.01904297,0.9829102,0.03027344,0.2001953,-0.6904297
819,0.3125,-0.125,-0.75,-0.05810547,0.04248047,0.9672852,0.03027344,0.2001953,-0.6904297
820,-0.0625,-0.5,-0.5,-0.04638672,0.03076172,0.9829102,0.03027344,0.2001953,-0.6904297
822,-0.1875,-0.125,-0.1875,-0.05029297,0.01513672,0.9711914,0.03027344,0.2001953,-0.6904297
823,0.25,-0.8125,-0.5,-0.05810547,0.04248047,0.9868164,0.03027344,0.2001953,-0.6904297
825,0,-0.25,-0.4375,-0.05419922,0.05810547,0.9750977,0.02880859,0.1943359,-0.6962891
826,0.1875,-0.25,-0.6875,-0.06201172,0.03076172,0.9750977,0.02880859,0.1943359,-0.6962891
828,0.5,-1,0,-0.06591797,0.04248047,0.9829102,0.02880859,0.1943359,-0.6962891
829,0.5625,-0.3125,-0.625,-0.05419922,0.03076172,0.9711914,0.02783203,0.1992188,-0.6791992
831,-0.0625,-0.75,-0.5625,-0.04638672,0.04248047,0.9672852,0.02783203,0.1992188,-0.6791992
832,0.0625,-0.5625,-0.25,-0.05419922,0.03076172,0.9711914,0.02783203,0.1992188,-0.6791992
834,0.5625,-0.125,-0.375,-0.04638672,0.04248047,0.9594727,0.02783203,0.1918945,-0.6875
835,-0.3125,0.0625,-0.625,-0.07373047,0.04638672,0.9477539,0.02783203,0.1918945,-0.6875
837,-0.0625,-0.25,-0.25,-0.06201172,0.02685547,0.9829102,0.02783203,0.1918945,-0.6875
838,0.25,-0.375,-0.6875,-0.05810547,0.04248047,0.9633789,0.02783203,0.1918945,-0.6875
840,-0.125,-0.5,-0.5,-0.04638672,0.05029297,0.9750977,0.0234375,0.1918945,-0.6821289
841,-0.5,-0.125,0.375,-0.06982422,0.01513672,0.9868164,0.0234375,0.1918945,-0.6821289
843,0.3125,-0.5625,-0.375,-0.06201172,0.04248047,0.9711914,0.0234375,0.1918945,-0.6821289
844,0.125,-0.8125,-0.5625,-0.06201172,0.02294922,0.9711914,0.02441406,0.1977539,-0.6918945
846,-0.125,-0.375,-0.1875,-0.05419922,0.04638672,0.9594727,0.02441406,0.1977539,-0.6918945
847,-0.1875,-0.5,0,-0.05810547,0.01513672,0.9633789,0.02441406,0.1977539,-0.6918945
849,0.5,-0.0625,-0.0625,-0.05419922,0.03076172,0.9672852,0.02539063,0.1992188,-0.6889648
850,0.5625,-0.625,-0.4375,-0.03857422,0.03076172,0.9672852,0.02539063,0.1992188,-0.6889648
852,-0.0625,0,-0.5625,-0.05029297,0.03466797,0.9555664,0.02539063,0.1992188,-0.6889648
853,0.375,0.4375,-0.0625,-0.05419922,0.04248047,0.9633789,0.02539063,0.1992188,-0.6889648
855,0.25,0,-0.1875,-0.06201172,0.04638672,0.9829102,0.02880859,0.1894531,-0.6865234
856,0,0,-0.3125,-0.04248047,0.03857422,0.9672852,0.02880859,0.1894531,-0.6865234
858,0.6875,0.1875,-0.625,-0.06591797,0.04248047,0.9672852,0.02880859,0.1894531,-0.6865234
859,0,0.1875,-0.9375,-0.06591797,0.02685547,0.9672852,0.02539063,0.2001953,-0.6889648
861,0.75,-0.0625,-0.5625,-0.05810547,0.03466797,0.9672852,0.02539063,0.2001953,-0.6889648
862,1.0625,0.8125,-0.625,-0.04638672,0.05029297,0.9672852,0.02539063,0.2001953,-0.6889648
864,0.6875,-0.0625,-0.625,-0.07373047,0.03466797,0.9555664,0.02539063,0.1992188,-0.6835938
865,0.0625,0.375,-0.5625,-0.05029297,0.01513672,0.9750977,0.02539063,0.1992188,-0.6835938
867,-0.0625,0.3125,-1.0625,-0.06201172,0.03466797,0.9711914,0.02539063,0.1992188,-0.6835938
868,0.5,0,-0.1875,-0.06591797,0.03076172,0.9750977,0.02539063,0.1992188,-0.6835938
870,0.0625,0,-0.5625,-0.06591797,0.04638672,0.9711914,0.02539063,0.1992188,-0.6835938
871,0.5625,0.125,-0.5,-0.05419922,0.03076172,0.9829102,0.02539063,0.1992188,-0.6835938
873,0.625,-0.0625,-0.5,-0.05029297,0.03466797,0.9790039,0.02539063,0.1992188,-0.6835938
874,0.4375,0,-0.625,-0.06201172,0.01513672,0.9829102,0.03466797,0.1918945,-0.6889648
876,0.375,0,-0.5625,-0.06982422,0.03076172,0.9829102,0.03466797,0.1918945,-0.6889648
878,0,0,-0.5625,-0.05810547,0.05029297,0.9868164,0.03466797,0.1918945,-0.6889648
880,0.375,0.4375,-0.6875,-0.05810547,0.04248047,0.9594727,0.02685547,0.1953125,-0.6806641
881,0.375,0.125,-0.3125,-0.05810547,0.03076172,0.9594727,0.02685547,0.1953125,-0.6806641
883,0.375,0.0625,-0.875,-0.06201172,0.02685547,0.9711914,0.02685547,0.1953125,-0.6806641
884,0.3125,-0.1875,-0.25,-0.04638672,0.03076172,1.001953,0.0234375,0.1977539,-0.6865234
886,0.625,-0.1875,-0.375,-0.06591797,0.03466797,0.9672852,0.0234375,0.1977539,-0.6865234
887,-0.0625,-0.3125,0,-0.06201172,0.05419922,0.9672852,0.0234375,0.1977539,-0.6865234
889,0.5625,-0.5,-0.3125,-0.04248047,0.04638672,0.9594727,0.0234375,0.1977539,-0.6865234
890,0.9375,-0.5,-0.0625,-0.05810547,0.03466797,0.9594727,0.02539063,0.1875,-0.6918945
892,0.5,-0.375,-0.375,-0.04638672,0.03466797,0.9750977,0.02539063,0.1875,-0.6918945
893,0,-0.25,-0.375,-0.05419922,0.03857422,0.9672852,0.02539063,0.1875,-0.6918945
895,0.5,-0.1875,0,-0.05810547,0.06591797,0.9829102,0.02783203,0.1884766,-0.6875
896,0.25,-0.8125,0.125,-0.05419922,0.03466797,0.9555664,0.02783203,0.1884766,-0.6875
898,0.375,-0.4375,-0.625,-0.06201172,0.02685547,0.9438477,0.02783203,0.1884766,-0.6875
899,-0.1875,0.0625,0,-0.03857422,0.03076172,0.9829102,0.03027344,0.1943359,-0.6850586
901,0.25,-0.125,-0.375,-0.06201172,0.06201172,0.9555664,0.03027344,0.1943359,-0.6850586
902,0.75,-0.9375,-0.4375,-0.06982422,0.02685547,0.9829102,0.03027344,0.1943359,-0.6850586
904,0.0625,-0.375,0.125,-0.05029297,0.04638672,0.9750977,0.03027344,0.1943359,-0.6850586
905,0.3125,0,-0.5625,-0.04248047,0.02294922,0.9711914,0.02099609,0.1875,-0.6806641
907,-0.3125,0.4375,-0.625,-0.06982422,0.03466797,0.9594727,0.02099609,0.1875,-0.6806641
908,0.3125,-0.1875,0,-0.04248047,0.03466797,0.9672852,0.02099609,0.1875,-0.6806641
910,0.4375,0.0625,-0.3125,-0.06201172,0.04638672,0.9594727,0.02441406,0.1953125,-0.6933594
911,0.375,-0.4375,-0.75,-0.03466797,0.03076172,0.9633789,0.02441406,0.1953125,-0.6933594
913,0.4375,-0.5,-0.75,-0.06982422,0.03076172,0.9829102,0.02441406,0.1953125,-0.6933594
914,0.25,-0.5625,-0.3125,-0.05419922,0.03466797,0.9672852,0.02783203,0.1918945,-0.6987305
916,0.4375,-0.375,-0.25,-0.05419922,0.01513672,0.9711914,0.02783203,0.1918945,-0.6987305
917,0.3125,-0.625,-1.125,-0.06201172,0.01513672,0.9477539,0.02783203,0.1918945,-0.6987305
919,0.1875,-0.0625,-0.375,-0.06982422,0.03076172,0.9790039,0.02783203,0.1918945,-0.6987305
920,-0.1875,-0.125,-0.5625,-0.06201172,0.01513672,0.9711914,0.0234375,0.1953125,-0.6904297
922,0.625,0.0625,-0.5,-0.04638672,0.01513672,0.9829102,0.0234375,0.1953125,-0.6904297
923,0.375,-0.125,-0.375,-0.05810547,0.06591797,0.9555664,0.0234375,0.1953125,-0.6904297
925,0.25,0.125,-0.6875,-0.06201172,0.05419922,0.9907227,0.02880859,0.1894531,-0.6821289
926,0.3125,0.3125,-0.25,-0.06591797,0.04248047,0.9555664,0.02880859,0.1894531,-0.6821289
928,0.625,0.5,-0.875,-0.07373047,0.05029297,0.9555664,0.02880859,0.1894531,-0.6821289
929,0.5,-0.6875,-0.375,-0.07373047,0.03466797,0.9672852,0.02880859,0.1884766,-0.6918945
931,0.4375,-0.4375,-0.875,-0.06201172,0.05029297,0.9868164,0.02880859,0.1884766,-0.6918945
932,0.1875,-0.125,-0.375,-0.06982422,0.03076172,0.9829102,0.02880859,0.1884766,-0.6918945
934,0.3125,-0.1875,-0.6875,-0.05810547,0.02685547,0.9711914,0.02880859,0.1884766,-0.6918945
935,0.0625,0.3125,0.0625,-0.05810547,0.03466797,0.9750977,0.02880859,0.1884766,-0.6918945
937,0.625,-0.0625,-0.4375,-0.05419922,0.03466797,0.9633789,0.02880859,0.1884766,-0.6918945
938,0.1875,-0.125,-0.625,-0.05419922,0.04248047,0.9555664,0.02880859,0.1884766,-0.6918945
940,0.8125,0.125,-0.5,-0.05810547,0.05810547,0.9868164,0.01953125,0.1875,-0.6806641
941,0.5,-0.5625,-0.6875,-0.04248047,0.03076172,0.9711914,0.01953125,0.1875,-0.6806641
943,0.25,0.1875,-0.4375,-0.06982422,0.03857422,0.9672852,0.01953125,0.1875,-0.6806641
944,0.1875,-0.25,-0.5625,-0.04638672,0.03076172,0.9829102,0.02685547,0.190918,-0.6875
946,0.8125,-0.5,-0.5,-0.06982422,0.03076172,0.9633789,0.02685547,0.190918,-0.6875
947,0.4375,-0.375,-0.6875,-0.06201172,0.03076172,0.9672852,0.02685547,0.190918,-0.6875
949,0.125,0.1875,-0.5,-0.06591797,0.02685547,0.9829102,0.02685547,0.190918,-0.6875
950,0.125,-0.0625,-0.625,-0.05029297,0.04248047,0.9868164,0.02685547,0.190918,-0.6875
952,0.3125,-0.125,-0.625,-0.05419922,0.03857422,0.9711914,0.02685547,0.190918,-0.6875
953,0.4375,0.3125,-0.625,-0.08154297,0.01513672,0.9555664,0.02685547,0.190918,-0.6875
955,0.1875,0.125,-0.5,-0.05419922,0.02294922,0.9829102,0.02880859,0.190918,-0.6865234
956,-0.0625,0,-1.125,-0.06591797,0.04248047,0.9868164,0.02880859,0.190918,-0.6865234
958,0.4375,0,-0.3125,-0.04638672,0.03857422,0.9477539,0.02880859,0.190918,-0.6865234
959,0.0625,0.0625,-0.875,-0.06591797,0.03857422,0.9594727,0.03125,0.1967773,-0.6918945
961,0.4375,-0.375,-0.5625,-0.04248047,0.04638672,0.9516602,0.03125,0.1967773,-0.6918945
962,0.625,-0.375,-0.6875,-0.05419922,0.02685547,0.9633789,0.03125,0.1967773,-0.6918945
964,0.125,0.125,-0.75,-0.05029297,0.03076172,0.9907227,0.02197266,0.1967773,-0.6904297
965,0.875,-0.1875,-0.625,-0.07373047,0.04638672,0.9829102,0.02197266,0.1967773,-0.6904297
967,0.9375,0,-0.625,-0.05810547,0.03466797,0.9711914,0.02197266,0.1967773,-0.6904297
968,0.25,0.125,-0.8125,-0.06201172,0.03466797,0.9868164,0.02197266,0.1967773,-0.6904297
970,0.5625,-0.375,-0.75,-0.06591797,0.01513672,0.9711914,0.03027344,0.1953125,-0.6791992
971,0.625,0.25,-0.375,-0.05419922,0.03857422,0.9672852,0.03027344,0.1953125,-0.6791992
973,0.125,0,-0.1875,-0.06201172,0.05419922,0.9516602,0.03027344,0.1953125,-0.6791992
975,0.25,-0.125,-0.9375,-0.05419922,0.03857422,0.9711914,0.03125,0.1992188,-0.6865234
977,0.375,-0.1875,-0.3125,-0.06982422,0.02685547,0.9711914,0.03125,0.1992188,-0.6865234
978,0.3125,-0.3125,-1.125,-0.06201172,0.01513672,0.9829102,0.03125,0.1992188,-0.6865234
980,0.375,-0.125,-0.5,-0.05419922,0.03076172,0.9907227,0.02783203,0.1967773,-0.6918945
981,0.625,-0.25,-0.4375,-0.04638672,0.03857422,0.9516602,0.02783203,0.1967773,-0.6918945
983,0.25,0.1875,-0.875,-0.05029297,0.04248047,0.9907227,0.02783203,0.1967773,-0.6918945
984,0.5,-0.4375,-0.625,-0.07373047,0.03076172,0.9672852,0.02783203,0.1967773,-0.6918945
986,0.375,0.0625,-0.8125,-0.06201172,0.02294922,0.9750977,0.0234375,0.1967773,-0.6948242
987,0.625,-0.0625,-0.375,-0.05810547,0.03857422,0.9555664,0.0234375,0.1967773,-0.6948242
989,0.375,0,-0.75,-0.04638672,0.04248047,0.9790039,0.0234375,0.1967773,-0.6948242
990,0.4375,-0.25,-0.4375,-0.06201172,0.04638672,0.9711914,0.02441406,0.1943359,-0.6850586
992,0.5,0.25,-0.375,-0.05810547,0.04248047,0.9321289,0.02441406,0.1943359,-0.6850586
993,0.1875,-0.1875,-0.5,-0.04638672,0.01513672,0.9711914,0.02441406,0.1943359,-0.6850586
995,0.6875,0.6875,-0.5625,-0.04248047,0.03076172,0.9711914,0.02197266,0.1977539,-0.6850586
996,0.1875,0,-0.5625,-0.05419922,0.03076172,0.9711914,0.02197266,0.1977539,-0.6850586
998,0.375,0.125,-0.6875,-0.04638672,0.01123047,0.9829102,0.02197266,0.1977539,-0.6850586
999,0.4375,0,-0.5,-0.03076172,0.04638672,0.9907227,0.02197266,0.1977539,-0.6850586
1001,0.6875,0,-0.1875,-0.05029297,0.03076172,0.9907227,0.02197266,0.1977539,-0.6850586
1002,0.625,0.1875,-0.9375,-0.05810547,0.03076172,0.9711914,0.02197266,0.1977539,-0.6850586
1004,0.625,0.0625,-0.5,-0.07373047,0.03076172,0.9633789,0.02197266,0.1977539,-0.6850586
1005,0.4375,0.1875,-0.75,-0.05029297,0.02294922,0.9555664,0.02539063,0.190918,-0.6948242
1007,0.4375,0.3125,-0.6875,-0.06591797,0.03857422,0.9868164,0.02539063,0.190918,-0.6948242
1008,0.625,-0.125,-0.1875,-0.05419922,0.02685547,0.9907227,0.02539063,0.190918,-0.6948242
1010,0.0625,-0.5625,-0.1875,-0.05419922,0.05029297,0.9829102,0.02197266,0.1992188,-0.6850586
1011,0.4375,0.0625,-0.5625,-0.05810547,0.04638672,0.9672852,0.02197266,0.1992188,-0.6850586
1013,0.3125,0,-0.5625,-0.05419922,0.04248047,0.9711914,0.02197266,0.1992188,-0.6850586
1014,0.4375,-0.3125,-0.3125,-0.05419922,0.05810547,0.9790039,0.02197266,0.1992188,-0.6850586
1016,0.4375,-0.1875,-0.75,-0.04638672,0.03466797,0.9868164,0.02197266,0.1992188,-0.6850586
1017,0.25,-0.0625,-0.4375,-0.05029297,0.03466797,0.9750977,0.02197266,0.1992188,-0.6850586
1019,-0.25,0.0625,-0.5625,-0.04638672,0.03466797,0.9750977,0.02197266,0.1992188,-0.6850586
1020,0.875,0.4375,0.0625,-0.05810547,0.03076172,0.9477539,0.02197266,0.1967773,-0.6904297
1022,0.5,0.3125,-0.625,-0.04638672,0.03857422,0.9829102,0.02197266,0.1967773,-0.6904297
1023,0.8125,-0.0625,-0.125,-0.06591797,0.01904297,0.9555664,0.02197266,0.1967773,-0.6904297
1025,0.625,-0.1875,-0.6875,-0.04638672,0.01904297,0.9711914,0.02539063,0.1918945,-0.6875
1026,0.5625,0.75,-0.5625,-0.06591797,0.02685547,1.001953,0.02539063,0.1918945,-0.6875
1028,1.0625,0.125,-0.625,-0.05810547,0.03857422,0.9672852,0.02539063,0.1918945,-0.6875
1029,0,0.0625,-0.8125,-0.06591797,0.05029297,0.9633789,0.01953125,0.1943359,-0.6865234
1031,0.5,0,-0.625,-0.05810547,0.03857422,0.9829102,0.01953125,0.1943359,-0.6865234
1032,0.4375,0.0625,-0.375,-0.05419922,0.03076172,0.9985352,0.01953125,0.1943359,-0.6865234
1034,0.5,0,-0.9375,-0.05029297,0.05029297,0.9633789,0.01953125,0.1943359,-0.6865234
1035,0.3125,0.3125,-0.3125,-0.05029297,0.04638672,0.9907227,0.02539063,0.1967773,-0.6875
1037,0.4375,0.5625,-0.75,-0.06591797,0.03857422,0.9946289,0.02539063,0.1967773,-0.6875
1038,0.875,0.375,-0.9375,-0.04638672,0.03857422,0.9516602,0.02539063,0.1967773,-0.6875
1040,0.8125,0.25,-0.75,-0.05029297,0.01513672,0.9594727,0.02197266,0.1918945,-0.6865234
1041,0.75,0.5625,-0.75,-0.05810547,0.03857422,0.9790039,0.02197266,0.1918945,-0.6865234
1043,0.625,0.25,-0.0625,-0.06201172,0.03857422,0.9829102,0.02197266,0.1918945,-0.6865234
1044,0.3125,0.125,-0.75,-0.05029297,0.03466797,0.9829102,0.02685547,0.1977539,-0.6821289
1046,0.3125,-0.25,-0.5625,-0.03857422,0.03857422,0.9633789,0.02685547,0.1977539,-0.6821289
1047,0.375,0,-0.625,-0.04638672,0.01513672,0.9672852,0.02685547,0.1977539,-0.6821289
1049,0.25,0,-0.25,-0.05029297,0.03076172,0.9868164,0.02685547,0.1977539,-0.6821289
1050,0.6875,-0.75,-1.125,-0.05419922,0.01513672,0.9946289,0.02441406,0.1992188,-0.6865234
1052,0.8125,0,-0.5,-0.06201172,0.03857422,0.9750977,0.02441406,0.1992188,-0.6865234
1053,0.6875,-0.0625,-0.625,-0.05419922,0.03076172,0.9633789,0.02441406,0.1992188,-0.6865234
1055,0.25,-0.0625,-0.1875,-0.04248047,0.03466797,0.9946289,0.03027344,0.1933594,-0.6948242
1056,0.25,0.1875,-0.0625,-0.06591797,0.03466797,0.9829102,0.03027344,0.1933594,-0.6948242
1058,0.375,0.0625,-0.875,-0.06201172,0.03466797,0.9633789,0.03027344,0.1933594,-0.6948242
1059,0.3125,0,-0.8125,-0.05810547,0.05810547,0.9711914,0.03369141,0.190918,-0.6821289
1061,0.3125,-0.3125,-0.3125,-0.05810547,0.05029297,0.9555664,0.03369141,0.190918,-0.6821289
1062,0.5,-0.25,-1.125,-0.04248047,0.05810547,0.9829102,0.03369141,0.190918,-0.6821289
1064,0.375,-0.3125,-0.625,-0.06201172,0.04638672,0.9829102,0.03369141,0.190918,-0.6821289
1065,0.25,0.125,-0.3125,-0.05419922,0.04248047,0.9829102,0.02783203,0.1967773,-0.6875
1067,0.5,0.0625,-0.625,-0.05419922,0.03076172,0.9672852,0.02783203,0.1967773,-0.6875
1068,0.5625,0.25,-0.4375,-0.06201172,0.01123047,0.9711914,0.02783203,0.1967773,-0.6875
1070,0.3125,0.125,-0.6875,-0.06201172,0.01513672,0.9555664,0.02539063,0.1953125,-0.6850586
1072,0.375,0,-0.5625,-0.03857422,0.02294922,0.9711914,0.02539063,0.1953125,-0.6850586
1074,0.3125,0.25,-0.5625,-0.06591797,0.03857422,0.9829102,0.02539063,0.1953125,-0.6850586
1075,0.6875,0.1875,-0.5,-0.06201172,0.03076172,0.9829102,0.02685547,0.1977539,-0.6889648
1077,0.625,0.5,-0.625,-0.05810547,0.01513672,0.9672852,0.02685547,0.1977539,-0.6889648
1078,0.4375,0,-1.0625,-0.05810547,0.01513672,0.9633789,0.02685547,0.1977539,-0.6889648
1080,0.4375,0.0625,-0.6875,-0.06591797,0.02685547,0.9594727,0.02685547,0.1977539,-0.6889648
1081,0.3125,-0.375,-0.625,-0.08154297,0.04638672,0.9907227,0.02685547,0.1977539,-0.6889648
1083,0.4375,0,-0.875,-0.06982422,0.01513672,0.9946289,0.02685547,0.1977539,-0.6889648
1084,0.8125,0,-0.6875,-0.05810547,0.01513672,0.9555664,0.02685547,0.1977539,-0.6889648
1086,0.5,0.1875,-0.4375,-0.05810547,0.02294922,0.9750977,0.02099609,0.1967773,-0.6904297
1087,0.5,-0.25,-0.6875,-0.05810547,0.03466797,0.9868164,0.02099609,0.1967773,-0.6904297
1089,0.25,-0.0625,-0.375,-0.03857422,0.01513672,0.9672852,0.02099609,0.1967773,-0.6904297
1090,0.375,-0.3125,-0.3125,-0.06591797,0.01513672,0.9672852,0.02197266,0.1943359,-0.6889648
1092,0.375,0.75,-0.875,-0.05029297,0.03857422,0.9711914,0.02197266,0.1943359,-0.6889648
1093,0.4375,0.1875,-0.8125,-0.08154297,0.03857422,0.9750977,0.02197266,0.1943359,-0.6889648
1095,0.6875,-0.1875,-0.5,-0.06591797,0.03857422,0.9750977,0.02197266,0.1943359,-0.6889648
1096,0.5,0.1875,-0.625,-0.06201172,0.02294922,0.9594727,0.02197266,0.1943359,-0.6889648
1098,0.6875,0,-0.4375,-0.06591797,0.02685547,0.9633789,0.02197266,0.1943359,-0.6889648
1099,0.75,-0.0625,-0.5625,-0.05419922,0.02685547,0.9711914,0.02197266,0.1943359,-0.6889648
1101,0.1875,-0.0625,-0.25,-0.05419922,0.02685547,0.9555664,0.03027344,0.1918945,-0.6865234
1102,0.6875,0.125,-0.3125,-0.04638672,0.01513672,0.9711914,0.03027344,0.1918945,-0.6865234
1104,0.1875,-0.25,-0.375,-0.05810547,0.03466797,0.9750977,0.03027344,0.1918945,-0.6865234
1105,0,-0.0625,-0.125,-0.05810547,0.03466797,0.9868164,0.0234375,0.1977539,-0.6948242
1107,0.25,0,-0.125,-0.06591797,0.03076172,0.9829102,0.0234375,0.1977539,-0.6948242
1108,0.8125,-0.5625,-0.375,-0.03466797,0.03857422,0.9985352,0.0234375,0.1977539,-0.6948242
1110,0.125,-0.0625,-0.5625,-0.05419922,0.03076172,0.9750977,0.03369141,0.1953125,-0.6835938
1111,0.6875,-0.3125,-0.6875,-0.06591797,0.03857422,0.9829102,0.03369141,0.1953125,-0.6835938
1113,0.1875,-0.125,-0.25,-0.06591797,0.03466797,0.9907227,0.03369141,0.1953125,-0.6835938
1114,0.6875,0.125,-0.375,-0.05029297,0.04638672,0.9672852,0.03369141,0.1953125,-0.6835938
1116,0,-0.3125,-0.5,-0.07373047,0.01513672,0.9555664,0.02539063,0.2026367,-0.6865234
1117,0.5,0.25,-0.5625,-0.05419922,0.04638672,0.9633789,0.02539063,0.2026367,-0.6865234
1119,-0.1875,0,-0.4375,-0.07373047,0.03857422,0.9633789,0.02539063,0.2026367,-0.6865234
1120,0.5625,-0.4375,-0.1875,-0.06201172,0.03466797,0.9477539,0.02099609,0.1943359,-0.6850586
1122,0.125,0.625,-0.25,-0.03466797,0.01513672,0.9594727,0.02099609,0.1943359,-0.6850586
1123,0.5625,-0.5,-0.3125,-0.06591797,0.02685547,0.9477539,0.02099609,0.1943359,-0.6850586
1125,0.3125,0.0625,-0.9375,-0.06591797,0.04248047,0.9672852,0.01953125,0.1977539,-0.6791992
1126,0.9375,0.3125,-1.0625,-0.03857422,0.01513672,0.9868164,0.01953125,0.1977539,-0.6791992
1128,-0.125,0.1875,-0.625,-0.06591797,0.03466797,0.9829102,0.01953125,0.1977539,-0.6791992
1129,0.1875,-0.375,-0.625,-0.06201172,0.04248047,0.9829102,0.01953125,0.1977539,-0.6791992
1131,0.4375,-0.125,-0.4375,-0.04248047,0.02685547,0.9868164,0.02197266,0.1953125,-0.6850586
1132,1.0625,0.0625,-0.5,-0.06982422,0.03857422,0.9477539,0.02197266,0.1953125,-0.6850586
1134,0,0.1875,-1.0625,-0.05810547,0.02685547,0.9868164,0.02197266,0.1953125,-0.6850586
1135,0.9375,0,-0.625,-0.04638672,0.04248047,0.9516602,0.02539063,0.1977539,-0.6865234
1137,0.4375,0.4375,-0.5625,-0.05029297,0.01123047,0.9790039,0.02539063,0.1977539,-0.6865234
1138,0.75,0.25,-1.1875,-0.06982422,0.03076172,0.9985352,0.02539063,0.1977539,-0.6865234
1140,0.6875,0.625,-0.5625,-0.04248047,0.04248047,0.9633789,0.02099609,0.190918,-0.6865234
1141,1.1875,0.5,-0.625,-0.05419922,0.02685547,0.9907227,0.02099609,0.190918,-0.6865234
1143,0.375,0.1875,-0.75,-0.05419922,0.03076172,0.9829102,0.02099609,0.190918,-0.6865234
1144,0.9375,0.125,-0.8125,-0.05810547,0.04248047,0.9829102,0.02099609,0.190918,-0.6865234
1146,0.125,0.5,-0.625,-0.07373047,0.02294922,0.9672852,0.02099609,0.190918,-0.6865234
1147,0.75,-0.25,-0.375,-0.06201172,0.01513672,0.9711914,0.02099609,0.190918,-0.6865234
1149,0.5625,0.4375,-0.4375,-0.04638672,0.05029297,0.9438477,0.02099609,0.190918,-0.6865234
1150,0.625,-0.125,-0.5625,-0.05810547,0.03466797,0.9672852,0.02685547,0.1933594,-0.6850586
1152,0.5,0.25,-0.5625,-0.06201172,0.04638672,0.9672852,0.02685547,0.1933594,-0.6850586
1153,0.4375,0,-0.625,-0.06201172,0.04248047,0.9829102,0.02685547,0.1933594,-0.6850586
1155,0.625,0.25,-0.6875,-0.05029297,0.02685547,0.9555664,0.02539063,0.1967773,-0.6889648
1156,0.25,-0.1875,-0.5,-0.05419922,0.02294922,0.9868164,0.02539063,0.1967773,-0.6889648
1158,0.8125,-0.125,-1.0625,-0.06201172,0.03076172,0.9672852,0.02539063,0.1967773,-0.6889648
1159,0.9375,-0.375,-0.1875,-0.05810547,0.05029297,0.9907227,0.02539063,0.1967773,-0.6889648
1161,0.3125,0.1875,-0.8125,-0.05810547,0.02685547,0.9594727,0.02539063,0.1967773,-0.6889648
1162,0.6875,0.3125,-0.25,-0.07763672,0.02294922,0.9711914,0.02539063,0.1967773,-0.6889648
1164,0,0.5,-0.8125,-0.06591797,0.05029297,0.9594727,0.02539063,0.1967773,-0.6889648
1165,0.3125,0,-1.25,-0.06201172,0.03466797,0.9555664,0.02441406,0.1894531,-0.6865234
1167,0.4375,0.125,-0.9375,-0.04638672,0.03857422,0.9829102,0.02441406,0.1894531,-0.6865234
1170,0.5,0.25,-0.375,-0.04638672,0.04248047,0.9829102,0.02441406,0.1894531,-0.6865234
1172,0.1875,-0.25,-0.25,-0.06201172,0.04638672,0.9711914,0.02197266,0.1884766,-0.6904297
1173,0.4375,0,-1.3125,-0.03857422,0.01513672,0.9829102,0.02197266,0.1884766,-0.6904297
1175,0.5,-0.0625,-0.5,-0.05029297,0.03076172,0.9672852,0.02197266,0.1884766,-0.6904297
1176,0.5,0,-0.25,-0.06591797,0.03076172,0.9790039,0.02441406,0.1933594,-0.6904297
1178,0.25,0.4375,-0.9375,-0.06591797,0.04248047,0.9672852,0.02441406,0.1933594,-0.6904297
1179,0.3125,0.5625,-0.4375,-0.03857422,0.04248047,0.9868164,0.02441406,0.1933594,-0.6904297
1181,0.1875,0.125,-0.875,-0.05810547,0.02294922,0.9633789,0.02441406,0.1933594,-0.6904297
1182,0.75,0.4375,-0.5625,-0.06201172,0.04638672,0.9790039,0.02539063,0.1953125,-0.6889648
1184,0,-0.0625,-0.1875,-0.04638672,0.03076172,0.9672852,0.02539063,0.1953125,-0.6889648
1185,0.625,-0.0625,-0.75,-0.06982422,0.03857422,0.9907227,0.02539063,0.1953125,-0.6889648
1187,0.375,0.0625,-0.3125,-0.05810547,0.03076172,0.9672852,0.0234375,0.1918945,-0.6875
1188,0.1875,-0.0625,-0.375,-0.05419922,0.03857422,0.9711914,0.0234375,0.1918945,-0.6875
1190,0.125,-0.3125,-0.8125,-0.06982422,0.02685547,0.9829102,0.0234375,0.1918945,-0.6875
1191,1,-0.25,-0.1875,-0.05810547,0.05029297,0.9790039,0.03027344,0.1953125,-0.6972656
1193,0,0.1875,-0.4375,-0.05810547,0.06201172,0.9594727,0.03027344,0.1953125,-0.6972656
1194,0.1875,0.25,-0.5,-0.05810547,0.02685547,0.9868164,0.03027344,0.1953125,-0.6972656
1196,0.3125,-0.0625,-0.9375,-0.05029297,0.02685547,0.9672852,0.03027344,0.1953125,-0.6972656
1197,0.0625,0.125,-0.5625,-0.04248047,0.01513672,0.9594727,0.02441406,0.1992188,-0.6889648
1199,0.125,0.4375,-0.375,-0.06982422,0.05029297,0.9829102,0.02441406,0.1992188,-0.6889648
1200,0.75,0.125,-0.625,-0.05810547,0.03076172,0.9829102,0.02441406,0.1992188,-0.6889648
1202,0.25,0,0,-0.06591797,0.04248047,0.9711914,0.02197266,0.1918945,-0.6865234
1203,0.8125,-0.3125,-0.625,-0.05419922,0.05419922,0.9594727,0.02197266,0.1918945,-0.6865234
1205,0.5,0.3125,-0.6875,-0.05810547,0.04248047,0.9946289,0.02197266,0.1918945,-0.6865234
1206,0.3125,-0.375,-0.6875,-0.06201172,0.03857422,0.9594727,0.02783203,0.1918945,-0.6865234
1208,1,0.3125,-0.625,-0.06201172,0.05029297,0.9711914,0.02783203,0.1918945,-0.6865234
1209,0.25,0.25,-0.5625,-0.05810547,0.04638672,0.9633789,0.02783203,0.1918945,-0.6865234
1211,-0.25,0.0625,-0.5625,-0.06591797,0.05029297,0.9594727,0.02783203,0.1918945,-0.6865234
1212,0.375,0,-0.3125,-0.06591797,0.04638672,0.9985352,0.02783203,0.1918945,-0.6865234
1214,1.0625,-0.3125,-0.375,-0.06591797,0.03466797,0.9868164,0.02783203,0.1918945,-0.6865234
1215,-0.0625,-0.0625,-0.0625,-0.05029297,0.04248047,0.9829102,0.02783203,0.1918945,-0.6865234
1217,0.6875,0.25,-0.25,-0.06591797,0.05029297,0.9829102,0.02685547,0.1977539,-0.6821289
1218,0.3125,0.0625,-0.1875,-0.06591797,0.03466797,0.9672852,0.02685547,0.1977539,-0.6821289
1220,0.5625,-0.375,-0.25,-0.08154297,0.01513672,0.9711914,0.02685547,0.1977539,-0.6821289
1221,0.75,-0.375,-0.5625,-0.05419922,0.01513672,0.9711914,0.02880859,0.1943359,-0.6875
1223,0.5625,-0.0625,-0.5,-0.05810547,0.01513672,0.9633789,0.02880859,0.1943359,-0.6875
1224,0.5,-0.375,0,-0.04638672,0.03076172,0.9829102,0.02880859,0.1943359,-0.6875
1226,0.25,0.125,-0.3125,-0.06201172,0.03466797,0.9829102,0.02880859,0.1943359,-0.6875
1227,0.375,-0.125,-0.6875,-0.05810547,0.04638672,0.9672852,0.02880859,0.1943359,-0.6875
1229,0.6875,-0.25,-0.5,-0.06591797,0.04638672,0.9711914,0.02880859,0.1943359,-0.6875
1230,0.4375,0,0,-0.06201172,0.04248047,0.9750977,0.02880859,0.1943359,-0.6875
1232,0.4375,-0.125,-0.6875,-0.06982422,0.03857422,0.9985352,0.02880859,0.1933594,-0.6918945
1233,0.8125,0,-0.25,-0.05419922,0.04248047,0.9672852,0.02880859,0.1933594,-0.6918945
1235,0.25,-0.1875,-0.0625,-0.05810547,0.02685547,0.9633789,0.02880859,0.1933594,-0.6918945
1236,0.4375,0,-0.8125,-0.05029297,0.03076172,0.9672852,0.02685547,0.1953125,-0.6865234
1238,0.5625,-0.375,-0.625,-0.04248047,0.03466797,0.9633789,0.02685547,0.1953125,-0.6865234
1239,0.0625,-0.5625,-0.75,-0.06982422,0.04248047,0.9672852,0.02685547,0.1953125,-0.6865234
1241,0.375,-0.4375,-0.5,-0.05029297,0.03857422,0.9907227,0.02685547,0.1826172,-0.6904297
1242,0.25,-0.25,-0.5,-0.06591797,0.02294922,0.9555664,0.02685547,0.1826172,-0.6904297
1244,0,-0.125,-0.3125,-0.05419922,0.05419922,0.9711914,0.02685547,0.1826172,-0.6904297
1245,0.375,-0.3125,-0.875,-0.04638672,0.02685547,0.9633789,0.02685547,0.1826172,-0.6904297
1247,0.375,-0.375,-0.125,-0.05029297,0.04248047,0.9594727,0.02783203,0.1884766,-0.6865234
1248,0.875,-0.25,-0.5625,-0.04248047,0.04248047,0.9555664,0.02783203,0.1884766,-0.6865234
1250,0.5,-0.5625,-0.75,-0.06201172,0.03466797,0.9829102,0.02783203,0.1884766,-0.6865234
1251,0.5,0,-0.5625,-0.05029297,0.02685547,0.9829102,0.02685547,0.1918945,-0.6875
1253,0.4375,0.0625,-0.4375,-0.06201172,0.04638672,0.9829102,0.02685547,0.1918945,-0.6875
1254,0.6875,-0.375,-0.1875,-0.07763672,0.03857422,0.9829102,0.02685547,0.1918945,-0.6875
1256,0.4375,0.375,-0.6875,-0.06591797,0.05810547,0.9829102,0.02880859,0.1992188,-0.6904297
1257,0,-0.1875,-0.1875,-0.05029297,0.03857422,0.9829102,0.02880859,0.1992188,-0.6904297
1259,0.5625,0.125,-0.6875,-0.06591797,0.03857422,0.9555664,0.02880859,0.1992188,-0.6904297
1260,0.125,0.4375,-0.5,-0.04638672,0.04638672,0.9555664,0.02880859,0.1992188,-0.6904297
1262,0.875,-0.25,-0.5625,-0.04638672,0.02294922,0.9829102,0.03027344,0.1953125,-0.6865234
1263,0,0.0625,-0.5625,-0.05419922,0.04248047,0.9711914,0.03027344,0.1953125,-0.6865234
1265,0.5625,-0.125,-0.625,-0.06201172,0.04248047,0.9829102,0.03027344,0.1953125,-0.6865234
1267,0.375,0,-0.5,-0.06591797,0.02685547,0.9829102,0.02539063,0.1943359,-0.6791992
1269,0.375,-0.125,-0.625,-0.06201172,0.06201172,0.9868164,0.02539063,0.1943359,-0.6791992
1270,0.25,-0.0625,-0.625,-0.07373047,0.03857422,0.9750977,0.02539063,0.1943359,-0.6791992
1272,0,-0.4375,-0.1875,-0.06201172,0.01123047,0.9711914,0.0234375,0.1894531,-0.6850586
1273,0.375,0,-0.1875,-0.07763672,0.03857422,0.9829102,0.0234375,0.1894531,-0.6850586
1275,0.5625,-0.4375,-1.0625,-0.05419922,0.04638672,0.9633789,0.0234375,0.1894531,-0.6850586
1276,0.375,-0.4375,-0.5625,-0.06201172,0.03076172,0.9790039,0.0234375,0.1894531,-0.6850586
1278,0.3125,-0.5625,-0.3125,-0.06591797,0.03466797,0.9672852,0.0234375,0.1894531,-0.6850586
1279,0,-0.375,-0.75,-0.05810547,0.03857422,0.9829102,0.0234375,0.1894531,-0.6850586
1281,0.1875,-0.1875,-0.875,-0.06201172,0.05029297,0.9672852,0.0234375,0.1894531,-0.6850586
1282,0.875,0.125,-0.3125,-0.05419922,0.03076172,0.9555664,0.02783203,0.1967773,-0.6791992
1284,0.625,0.125,-0.5625,-0.05029297,0.04248047,0.9633789,0.02783203,0.1967773,-0.6791992
1285,0.1875,0.125,-0.6875,-0.05419922,0.02294922,0.9477539,0.02783203,0.1967773,-0.6791992
1287,0.1875,-0.25,-0.4375,-0.04248047,0.03466797,0.9829102,0.03027344,0.190918,-0.6850586
1288,0.75,-0.0625,-0.3125,-0.06201172,0.04638672,0.9555664,0.03027344,0.190918,-0.6850586
1290,0.375,-0.3125,-0.375,-0.06201172,0.03076172,0.9672852,0.03027344,0.190918,-0.6850586
1291,0.5625,-0.125,-0.8125,-0.06201172,0.03466797,0.9672852,0.03027344,0.190918,-0.6850586
1293,0.4375,0.375,-0.625,-0.04638672,0.05029297,0.9633789,0.03027344,0.190918,-0.6850586
1294,0.6875,-0.5,-0.375,-0.03466797,0.03857422,0.9555664,0.03027344,0.190918,-0.6850586
1296,0.0625,-0.125,-0.125,-0.04638672,0.05029297,0.9672852,0.03027344,0.190918,-0.6850586
1297,0.3125,-0.125,-0.25,-0.06982422,0.05029297,0.9829102,0.01953125,0.1875,-0.6850586
1299,0.625,-0.4375,-0.125,-0.05029297,0.03466797,0.9711914,0.01953125,0.1875,-0.6850586
1300,0.625,0,-0.0625,-0.05810547,0.04248047,0.9750977,0.01953125,0.1875,-0.6850586
1302,0.3125,-0.1875,-0.75,-0.05029297,0.03466797,0.9594727,0.02783203,0.1918945,-0.6904297
1303,0.5,0,-0.875,-0.04248047,0.01513672,0.9829102,0.02783203,0.1918945,-0.6904297
1305,0.0625,-0.1875,-0.375,-0.05810547,0.02685547,0.9907227,0.02783203,0.1918945,-0.6904297
1306,0.4375,0,-0.25,-0.04638672,0.01513672,0.9829102,0.02783203,0.1884766,-0.6889648
1308,-0.0625,-0.3125,-0.5625,-0.05810547,0.01513672,0.9750977,0.02783203,0.1884766,-0.6889648
1309,0.4375,0,-0.125,-0.05419922,0.04248047,0.9711914,0.02783203,0.1884766,-0.6889648
1311,-0.125,-0.5,-0.125,-0.05029297,0.02294922,0.9907227,0.02783203,0.1884766,-0.6889648
1312,-0.3125,-0.625,-0.1875,-0.05810547,0.03076172,0.9829102,0.02197266,0.1933594,-0.6889648
1314,0.375,0,-0.875,-0.05810547,0.03857422,0.9750977,0.02197266,0.1933594,-0.6889648
1315,0.625,-0.8125,0,-0.07763672,0.03857422,0.9672852,0.02197266,0.1933594,-0.6889648
1317,0.0625,0.25,-0.25,-0.03857422,0.04248047,0.9594727,0.02685547,0.1953125,-0.6933594
1318,0.8125,-0.6875,-0.4375,-0.05029297,0.01513672,0.9829102,0.02685547,0.1953125,-0.6933594
1320,0.1875,-0.375,-0.5625,-0.03466797,0.02294922,0.9868164,0.02685547,0.1953125,-0.6933594
1321,0.25,0.0625,-0.125,-0.06591797,0.03466797,0.9829102,0.02441406,0.1992188,-0.6865234
1323,0.375,-0.25,-0.5625,-0.05419922,0.03076172,0.9672852,0.02441406,0.1992188,-0.6865234
1324,0,-0.25,-0.5,-0.06591797,0.03076172,0.9985352,0.02441406,0.1992188,-0.6865234
1326,0.4375,0.3125,-0.6875,-0.04638672,0.04248047,0.9711914,0.02441406,0.1992188,-0.6865234
1327,0.5,-0.0625,-0.6875,-0.05810547,0.04248047,0.9985352,0.02099609,0.1943359,-0.6918945
1329,0.4375,-0.375,-0.25,-0.05810547,0.05029297,0.9829102,0.02099609,0.1943359,-0.6918945
1330,0.3125,-0.25,-0.3125,-0.05810547,0.03076172,0.9790039,0.02099609,0.1943359,-0.6918945
1332,-0.5,-0.5,-0.875,-0.03857422,0.01513672,0.9477539,0.03125,0.1943359,-0.6904297
1333,-0.0625,0,-0.8125,-0.05029297,0.05419922,0.9555664,0.03125,0.1943359,-0.6904297
1335,0.5,-0.25,-0.375,-0.05810547,0.03466797,0.9711914,0.03125,0.1943359,-0.6904297
1336,0,-0.1875,-0.5,-0.05810547,0.03076172,0.9555664,0.02783203,0.1943359,-0.6821289
1338,0.5625,-0.375,-0.25,-0.06591797,0.01513672,0.9633789,0.02783203,0.1943359,-0.6821289
1339,0.3125,0.125,-0.625,-0.05419922,0.05029297,0.9633789,0.02783203,0.1943359,-0.6821289
1341,0.5,-0.0625,-0.3125,-0.05419922,0.04248047,0.9829102,0.02783203,0.1943359,-0.6821289
1342,0.6875,0,-0.3125,-0.04638672,0.02685547,0.9672852,0.02539063,0.1967773,-0.6806641
1344,0.375,-0.0625,-0.9375,-0.06201172,0.04638672,0.9711914,0.02539063,0.1967773,-0.6806641
1345,0.1875,-0.4375,-0.625,-0.06591797,0.02685547,0.9750977,0.02539063,0.1967773,-0.6806641
1347,0.125,0.125,-0.75,-0.04638672,0.03466797,0.9555664,0.03613281,0.190918,-0.6850586
1348,0.8125,0.1875,-1,-0.07373047,0.01513672,0.9672852,0.03613281,0.190918,-0.6850586
1350,0,-0.125,-0.625,-0.06201172,0.03857422,0.9633789,0.03613281,0.190918,-0.6850586
1351,0.25,0.125,-0.4375,-0.04638672,0.03076172,0.9711914,0.02783203,0.1918945,-0.6821289
1353,0.375,0.3125,-0.5625,-0.03857422,0.01513672,0.9750977,0.02783203,0.1918945,-0.6821289
1354,0.4375,0.5625,-0.25,-0.09716797,0.01513672,1.001953,0.02783203,0.1918945,-0.6821289
1356,0.4375,-0.125,-0.625,-0.05029297,0.05419922,0.9829102,0.02783203,0.1918945,-0.6821289
1357,0.375,0.0625,-0.3125,-0.06201172,0.03076172,0.9790039,0.02783203,0.1918945,-0.6821289
1359,0.1875,-0.3125,-0.25,-0.06591797,0.03466797,0.9829102,0.02783203,0.1918945,-0.6821289
1360,0.8125,-0.3125,0,-0.06982422,0.03076172,0.9750977,0.02783203,0.1918945,-0.6821289
1362,0,-0.375,0,-0.05810547,0.05029297,0.9868164,0.03466797,0.1894531,-0.6962891
1364,0.4375,0,-0.625,-0.03857422,0.03466797,0.9750977,0.03466797,0.1894531,-0.6962891
1366,-0.0625,-0.125,-0.75,-0.07373047,0.04248047,0.9672852,0.03466797,0.1894531,-0.6962891
1367,0.3125,-0.25,-0.1875,-0.04248047,0.03857422,0.9868164,0.03027344,0.190918,-0.6875
1369,0.6875,0,-0.1875,-0.05419922,0.03076172,0.9633789,0.03027344,0.190918,-0.6875
1370,0.4375,0.125,-0.1875,-0.05810547,0.03076172,0.9633789,0.03027344,0.190918,-0.6875
1372,0.3125,-0.375,-0.8125,-0.04638672,0.05029297,0.9750977,0.02783203,0.1875,-0.6821289
1373,0.25,-0.1875,-0.125,-0.06982422,0.04248047,0.9672852,0.02783203,0.1875,-0.6821289
1375,0.0625,-0.4375,-0.6875,-0.07373047,0.04248047,0.9711914,0.02783203,0.1875,-0.6821289
1376,-0.0625,-0.625,-0.5,-0.05810547,0.01123047,0.9672852,0.02783203,0.1875,-0.6821289
1378,-0.25,-0.3125,-0.375,-0.06201172,0.03857422,0.9907227,0.02880859,0.1933594,-0.6850586
1379,0,-0.5,-0.5625,-0.05419922,0.03076172,0.9672852,0.02880859,0.1933594,-0.6850586
1381,0.25,-0.6875,-0.125,-0.06201172,0.04638672,0.9672852,0.02880859,0.1933594,-0.6850586
1382,0.125,-0.25,-0.4375,-0.06201172,0.05029297,0.9790039,0.02783203,0.1953125,-0.6767578
1384,0,-0.3125,-0.375,-0.05810547,0.03857422,0.9711914,0.02783203,0.1953125,-0.6767578
1385,0.6875,-0.5,-0.8125,-0.06591797,0.03466797,0.9672852,0.02783203,0.1953125,-0.6767578
1387,0.5,-0.0625,0.0625,-0.05810547,0.03076172,0.9829102,0.02783203,0.1933594,-0.6821289
1388,0.375,0.1875,-0.375,-0.05029297,0.03076172,0.9711914,0.02783203,0.1933594,-0.6821289
1390,0.25,-0.0625,-0.5,-0.06591797,0.04638672,0.9829102,0.02783203,0.1933594,-0.6821289
1391,0.375,-0.375,-0.5625,-0.06201172,0.02294922,0.9750977,0.02783203,0.1933594,-0.6821289
1393,0,-0.8125,-0.5,-0.05419922,0.03857422,0.9790039,0.02539063,0.1860352,-0.6791992
1394,0.375,-0.25,-0.4375,-0.05029297,0.03076172,0.9633789,0.02539063,0.1860352,-0.6791992
1396,-0.0625,-0.0625,-0.1875,-0.05419922,0.02685547,0.9868164,0.02539063,0.1860352,-0.6791992
1397,0.125,-0.375,-0.0625,-0.05810547,0.03466797,0.9868164,0.0234375,0.1884766,-0.6904297
1399,-0.125,-0.375,-0.6875,-0.05419922,0.05419922,0.9633789,0.0234375,0.1884766,-0.6904297
1400,0.4375,0,-0.8125,-0.05810547,0.02294922,0.9829102,0.0234375,0.1884766,-0.6904297
1402,-0.25,-0.3125,-0.8125,-0.05029297,0.04248047,0.9907227,0.03027344,0.1977539,-0.6875
1403,0.125,-0.0625,-1.0625,-0.07763672,0.04638672,0.9829102,0.03027344,0.1977539,-0.6875
1405,0.1875,0,-0.125,-0.06201172,0.03076172,0.9829102,0.03027344,0.1977539,-0.6875
1406,0.1875,-0.3125,-0.75,-0.05810547,0.05810547,0.9790039,0.03027344,0.1977539,-0.6875
1408,0.0625,-0.5625,-0.5,-0.06201172,0.04248047,0.9829102,0.02685547,0.1967773,-0.6865234
1409,0.0625,-0.0625,-0.3125,-0.04638672,0.03857422,0.9516602,0.02685547,0.1967773,-0.6865234
1411,0.0625,0.125,-0.0625,-0.03466797,0.03857422,0.9633789,0.02685547,0.1967773,-0.6865234
1412,0.375,-0.3125,-0.5,-0.04248047,0.03857422,0.9750977,0.02441406,0.1992188,-0.6821289
1414,0.75,-0.375,-0.3125,-0.05419922,0.03466797,0.9946289,0.02441406,0.1992188,-0.6821289
1415,0.375,0.1875,-0.6875,-0.06201172,0.03076172,0.9829102,0.02441406,0.1992188,-0.6821289
1417,0.125,0.5625,-0.25,-0.05029297,0.04248047,0.9672852,0.02783203,0.1992188,-0.6865234
1418,1,-0.25,-0.5625,-0.06201172,0.04638672,0.9594727,0.02783203,0.1992188,-0.6865234
1420,0.8125,-0.1875,-0.5625,-0.04638672,0.04248047,0.9594727,0.02783203,0.1992188,-0.6865234
1421,0.6875,0.3125,-0.375,-0.05029297,0.04248047,0.9868164,0.02783203,0.1992188,-0.6865234
1423,0.0625,-0.3125,-0.625,-0.06201172,0.03857422,0.9750977,0.02783203,0.1992188,-0.6865234
1424,0.1875,-0.125,-0.5625,-0.06201172,0.03466797,0.9555664,0.02783203,0.1992188,-0.6865234
1426,0.9375,0,-0.125,-0.06591797,0.04248047,0.9594727,0.02783203,0.1992188,-0.6865234
1427,0.3125,-0.375,-0.75,-0.03857422,0.03076172,0.9750977,0.0234375,0.1953125,-0.6850586
1429,-0.125,-0.5625,-0.5,-0.07763672,0.04248047,0.9829102,0.0234375,0.1953125,-0.6850586
1430,0.4375,0.25,-0.5,-0.05029297,0.03076172,0.9829102,0.0234375,0.1953125,-0.6850586
1432,-0.1875,0,-0.75,-0.05029297,0.03466797,0.9750977,0.03125,0.1977539,-0.6948242
1433,0.3125,0.125,-0.25,-0.06201172,0.05029297,0.9672852,0.03125,0.1977539,-0.6948242
1435,0.625,-0.0625,-0.5,-0.06591797,0.03857422,0.9711914,0.03125,0.1977539,-0.6948242
1436,0.0625,-0.3125,-0.375,-0.06982422,0.02685547,0.9672852,0.02197266,0.1977539,-0.6850586
1438,0.3125,0,-0.1875,-0.04248047,0.05029297,0.9829102,0.02197266,0.1977539,-0.6850586
1439,0.125,-0.0625,-0.375,-0.05029297,0.03466797,0.9829102,0.02197266,0.1977539,-0.6850586
1441,0.1875,-0.75,-0.625,-0.05810547,0.04638672,0.9868164,0.02197266,0.1977539,-0.6850586
1442,0.25,0,-0.5,-0.06201172,0.04248047,0.9868164,0.02197266,0.1875,-0.6791992
1444,-0.0625,-0.5,-0.5625,-0.05810547,0.03076172,0.9633789,0.02197266,0.1875,-0.6791992
1445,0.5625,-0.5625,-0.625,-0.06201172,0.05810547,0.9672852,0.02197266,0.1875,-0.6791992
1447,0.25,0.0625,-0.25,-0.07373047,0.03466797,0.9633789,0.02539063,0.1943359,-0.6865234
1448,0.3125,0.3125,-0.375,-0.05419922,0.03076172,0.9633789,0.02539063,0.1943359,-0.6865234
1450,0.4375,-0.375,-0.6875,-0.05810547,0.03466797,0.9711914,0.02539063,0.1943359,-0.6865234
1451,0.125,-0.375,-0.4375,-0.05029297,0.01904297,0.9868164,0.02441406,0.1850586,-0.6918945
1453,0,0.0625,-0.8125,-0.06201172,0.05029297,0.9907227,0.02441406,0.1850586,-0.6918945
1454,0.625,0,-0.125,-0.06982422,0.01513672,0.9633789,0.02441406,0.1850586,-0.6918945
1456,0.5625,-0.5,-0.5,-0.05029297,0.04248047,0.9672852,0.02441406,0.1850586,-0.6918945
1457,0.125,-0.6875,-0.75,-0.04248047,0.02294922,0.9829102,0.01855469,0.1894531,-0.6875
1459,-0.0625,-0.625,-0.875,-0.06591797,0.01513672,0.9555664,0.01855469,0.1894531,-0.6875
1461,0.6875,0,-1,-0.06982422,0.01513672,0.9594727,0.01855469,0.1894531,-0.6875
1463,0.25,-0.1875,-1.125,-0.04638672,0.01513672,0.9633789,0.03027344,0.1992188,-0.6835938
1464,0.3125,0.25,-0.25,-0.05029297,0.04248047,0.9672852,0.03027344,0.1992188,-0.6835938
1466,0.25,-0.3125,-0.625,-0.05029297,0.03076172,0.9907227,0.03027344,0.1992188,-0.6835938
1467,0.3125,-0.375,-0.25,-0.05810547,0.03076172,0.9711914,0.03027344,0.184082,-0.6918945
1469,0.25,-0.5625,-0.1875,-0.05810547,0.01123047,0.9829102,0.03027344,0.184082,-0.6918945
1470,0.125,0,-0.875,-0.05029297,0.05810547,0.9829102,0.03027344,0.184082,-0.6918945
1472,0.3125,-0.5,-0.375,-0.05419922,0.04248047,0.9790039,0.03027344,0.184082,-0.6918945
1473,-0.0625,-0.125,-0.5625,-0.05810547,0.04248047,0.9907227,0.02197266,0.1977539,-0.6933594
1475,0.625,0.125,-0.3125,-0.06591797,0.03857422,0.9829102,0.02197266,0.1977539,-0.6933594
1476,0.25,0.0625,-0.25,-0.05810547,0.03076172,0.9711914,0.02197266,0.1977539,-0.6933594
1478,0.4375,0,-0.1875,-0.06591797,0.02685547,0.9829102,0.02441406,0.1884766,-0.6933594
1479,0.125,0.125,-0.5625,-0.05029297,0.05419922,0.9672852,0.02441406,0.1884766,-0.6933594
1481,0.25,-0.3125,-0.625,-0.05810547,0.03076172,0.9907227,0.02441406,0.1884766,-0.6933594
1482,0.8125,-0.375,-0.375,-0.06591797,0.03857422,0.9829102,0.03027344,0.190918,-0.6875
1484,0.5625,-0.1875,-0.5625,-0.05029297,0.01513672,0.9711914,0.03027344,0.190918,-0.6875
1485,0.6875,0,-0.1875,-0.06201172,0.01513672,0.9672852,0.03027344,0.190918,-0.6875
1487,0.5625,-0.25,-0.6875,-0.05810547,0.03076172,0.9516602,0.03027344,0.190918,-0.6875
1488,0.3125,-0.4375,-0.625,-0.05029297,0.007324219,0.9790039,0.03027344,0.190918,-0.6875
1490,0.0625,-0.125,-0.625,-0.05419922,0.05419922,0.9829102,0.03027344,0.190918,-0.6875
1491,0.25,0,-0.375,-0.06591797,0.05029297,0.9555664,0.03027344,0.190918,-0.6875
1493,0.125,0.0625,-0.75,-0.04638672,0.03466797,0.9868164,0.02783203,0.1894531,-0.6821289
1494,0.3125,0.0625,-0.4375,-0.05810547,0.03857422,0.9633789,0.02783203,0.1894531,-0.6821289
1496,0.1875,0.0625,-0.25,-0.05810547,0.04248047,0.9711914,0.02783203,0.1894531,-0.6821289
1497,0,-0.5,-0.8125,-0.05810547,0.03076172,0.9672852,0.02099609,0.1918945,-0.6904297
1499,0.3125,-0.1875,-0.4375,-0.06591797,0.03076172,0.9711914,0.02099609,0.1918945,-0.6904297
1500,-0.0625,-0.6875,-0.5,-0.06982422,0.05419922,0.9633789,0.02099609,0.1918945,-0.6904297
1502,0.5,-0.375,-0.125,-0.04248047,0.04248047,0.9750977,0.02099609,0.1918945,-0.6904297
1503,0.25,-0.25,-0.375,-0.04248047,0.04638672,0.9672852,0.02099609,0.1918945,-0.6904297
1505,0.375,-0.75,-0.625,-0.06201172,0.03076172,0.9829102,0.02099609,0.1918945,-0.6904297
1506,0.625,-0.125,-0.1875,-0.05810547,0.06591797,0.9633789,0.02099609,0.1918945,-0.6904297
1508,0.125,-0.6875,-0.0625,-0.05810547,0.04638672,0.9750977,0.02685547,0.1967773,-0.6904297
1509,0.5,-0.1875,-0.1875,-0.05810547,0.03076172,0.9829102,0.02685547,0.1967773,-0.6904297
1511,0.0625,-0.3125,-0.0625,-0.06201172,0.03857422,0.9711914,0.02685547,0.1967773,-0.6904297
1512,0.375,-0.375,-0.1875,-0.05419922,0.03076172,0.9790039,0.03271484,0.1875,-0.6835938
1514,0.4375,-0.6875,-0.625,-0.04638672,0.007324219,0.9594727,0.03271484,0.1875,-0.6835938
1515,0.625,0,-0.5,-0.04638672,0.04248047,0.9829102,0.03271484,0.1875,-0.6835938
1517,0.0625,-0.3125,-0.125,-0.06591797,0.03466797,0.9829102,0.02783203,0.1933594,-0.6933594
1518,0.25,0.625,-0.4375,-0.05029297,0.04638672,0.9829102,0.02783203,0.1933594,-0.6933594
1520,0.4375,0.125,-0.5625,-0.05029297,0.04248047,0.9750977,0.02783203,0.1933594,-0.6933594
1521,0,-0.3125,-0.4375,-0.05810547,0.01513672,0.9829102,0.02783203,0.1933594,-0.6933594
1523,0.3125,-0.1875,-0.8125,-0.05810547,0.02685547,0.9829102,0.02783203,0.1943359,-0.6835938
1524,0.0625,0,-0.5,-0.07373047,0.01513672,0.9555664,0.02783203,0.1943359,-0.6835938
1526,0.8125,-0.125,-0.5,-0.05029297,0.03466797,0.9711914,0.02783203,0.1943359,-0.6835938
1527,0,0.0625,-0.25,-0.06201172,0.03466797,0.9555664,0.02539063,0.1953125,-0.6875
1529,0.0625,-0.4375,-0.75,-0.05810547,0.04248047,0.9829102,0.02539063,0.1953125,-0.6875
1530,0.3125,0.1875,-0.625,-0.05419922,0.03076172,0.9829102,0.02539063,0.1953125,-0.6875
1532,0.3125,0,-0.5625,-0.03857422,0.01904297,0.9477539,0.03027344,0.1816406,-0.6806641
1533,0.5625,-0.375,-0.75,-0.05810547,0.04248047,0.9711914,0.03027344,0.1816406,-0.6806641
1535,0.25,0.125,-1.125,-0.05810547,0.04248047,0.9633789,0.03027344,0.1816406,-0.6806641
1536,0.375,0,-0.5,-0.04638672,0.03466797,0.9672852,0.03027344,0.1816406,-0.6806641
1538,-0.1875,-0.25,-0.375,-0.05419922,0.03857422,0.9477539,0.03125,0.1977539,-0.6918945
1539,0.1875,0.25,-0.375,-0.05029297,0.03466797,0.9516602,0.03125,0.1977539,-0.6918945
1541,1.125,0.0625,-0.375,-0.05810547,0.03466797,1.005859,0.03125,0.1977539,-0.6918945
1542,0.4375,0,-0.5625,-0.06201172,0.03857422,0.9829102,0.02783203,0.1894531,-0.6777344
1544,0.6875,0.125,-0.9375,-0.06591797,0.01513672,0.9907227,0.02783203,0.1894531,-0.6777344
1545,0.3125,-0.125,-1,-0.05810547,0.03076172,0.9516602,0.02783203,0.1894531,-0.6777344
1547,0.5625,0.5,-0.3125,-0.06201172,0.04248047,0.9672852,0.02197266,0.1875,-0.6875
1548,0.5625,0.0625,-0.6875,-0.05419922,0.03857422,0.9829102,0.02197266,0.1875,-0.6875
1550,0.625,-0.25,-0.5,-0.05810547,0.02685547,0.9829102,0.02197266,0.1875,-0.6875
1551,0.125,0,-0.625,-0.06591797,0.02685547,0.9477539,0.02197266,0.1875,-0.6875
1553,0.375,0.1875,-0.8125,-0.06201172,0.04248047,0.9672852,0.02197266,0.1875,-0.6875
1554,0.4375,-0.4375,-0.375,-0.06591797,0.05810547,0.9516602,0.02197266,0.1875,-0.6875
1556,-0.1875,-0.375,-0.875,-0.06591797,0.05029297,0.9633789,0.02197266,0.1875,-0.6875
1559,0.4375,-0.4375,-0.8125,-0.05029297,0.04248047,0.9711914,0.02685547,0.2036133,-0.6865234
1561,0,-0.0625,-0.375,-0.06201172,0.03466797,0.9829102,0.02685547,0.2036133,-0.6865234
1562,0,0,-0.9375,-0.05029297,0.03857422,0.9633789,0.02685547,0.2036133,-0.6865234
1564,0.75,0,-0.4375,-0.04638672,0.02685547,0.9790039,0.02880859,0.190918,-0.6889648
1565,0.4375,0,-0.3125,-0.05419922,0.02685547,0.9594727,0.02880859,0.190918,-0.6889648
1567,0.6875,-0.375,-0.625,-0.06201172,0.03466797,0.9594727,0.02880859,0.190918,-0.6889648
1568,0.1875,0.4375,-0.375,-0.05810547,0.05029297,0.9711914,0.02880859,0.190918,-0.6889648
1570,0.625,0.1875,-0.625,-0.05419922,0.03466797,0.9672852,0.02880859,0.190918,-0.6889648
1571,0.6875,0.125,-1.125,-0.05419922,0.03466797,0.9594727,0.02880859,0.190918,-0.6889648
1573,0.25,-0.0625,-0.25,-0.05029297,0.03076172,0.9907227,0.02880859,0.190918,-0.6889648
1574,0.125,0,-0.8125,-0.05810547,0.05029297,0.9594727,0.02441406,0.1933594,-0.6835938
1576,0.3125,0,-0.875,-0.05419922,0.02294922,0.9829102,0.02441406,0.1933594,-0.6835938
1577,0.0625,0,-0.375,-0.05029297,0.03857422,0.9633789,0.02441406,0.1933594,-0.6835938
1579,0.75,0.25,-0.25,-0.05810547,0.04638672,0.9672852,0.03125,0.1918945,-0.6889648
1580,0.25,-0.1875,0,-0.06982422,0.04248047,0.9711914,0.03125,0.1918945,-0.6889648
1582,0.4375,-0.3125,-0.5625,-0.06982422,0.02294922,0.9711914,0.03125,0.1918945,-0.6889648
1583,0.625,-0.0625,-0.25,-0.06591797,0.03857422,0.9516602,0.02685547,0.1894531,-0.6865234
1585,0.4375,0.125,-0.375,-0.06201172,0.03857422,0.9672852,0.02685547,0.1894531,-0.6865234
1586,0.375,0.125,-0.5,-0.06982422,0.03466797,0.9868164,0.02685547,0.1894531,-0.6865234
1588,0,0.1875,-0.8125,-0.06982422,0.03076172,0.9829102,0.02685547,0.1894531,-0.6865234
1589,0.25,0,-0.625,-0.05029297,0.04638672,0.9672852,0.02685547,0.1953125,-0.6777344
1591,0.8125,0.375,-0.5625,-0.06591797,0.03076172,0.9868164,0.02685547,0.1953125,-0.6777344
1592,1,0,-1,-0.06201172,0.04638672,0.9633789,0.02685547,0.1953125,-0.6777344
1594,0.5,0.125,-0.8125,-0.05810547,0.03466797,0.9868164,0.03027344,0.1894531,-0.675293
1595,0.3125,0.3125,-0.6875,-0.05810547,0.03466797,0.9711914,0.03027344,0.1894531,-0.675293
1597,0.75,0.625,-0.9375,-0.06591797,0.03076172,0.9829102,0.03027344,0.1894531,-0.675293
1598,0.5625,0.3125,-0.625,-0.06982422,0.03466797,0.9750977,0.02539063,0.1967773,-0.6791992
1600,0.3125,0.4375,-0.125,-0.05810547,0.04638672,0.9633789,0.02539063,0.1967773,-0.6791992
1601,0.5,-0.0625,-0.5625,-0.06591797,0.03076172,0.9829102,0.02539063,0.1967773,-0.6791992
1603,0.875,0.4375,-1.125,-0.06591797,0.02294922,0.9868164,0.02539063,0.1967773,-0.6791992
1604,0.75,0.6875,-0.6875,-0.05810547,0.04638672,0.9946289,0.02197266,0.1953125,-0.6889648
1606,-0.0625,0.625,-0.8125,-0.05029297,0.01123047,0.9790039,0.02197266,0.1953125,-0.6889648
1607,0.1875,0.125,-0.375,-0.05810547,0.02685547,1.009766,0.02197266,0.1953125,-0.6889648
1609,1.0625,0.1875,-0.5625,-0.05810547,0.03857422,0.9672852,0.02880859,0.1933594,-0.6850586
1610,0.1875,0.1875,-0.5625,-0.05419922,0.03466797,0.9829102,0.02880859,0.1933594,-0.6850586
1612,0.4375,0.25,-1.0625,-0.05419922,0.01513672,0.9555664,0.02880859,0.1933594,-0.6850586
1613,0.1875,0.1875,-0.125,-0.05029297,0.03857422,0.9868164,0.02685547,0.1884766,-0.6904297
1615,0.5,0.625,-0.5625,-0.03857422,0.01513672,0.9711914,0.02685547,0.1884766,-0.6904297
1616,0.4375,0.25,-0.625,-0.06201172,0.04248047,0.9633789,0.02685547,0.1884766,-0.6904297
1618,0.5,-0.25,0,-0.06591797,0.03076172,0.9829102,0.02685547,0.1884766,-0.6904297
1619,0.25,0.125,-0.6875,-0.04248047,0.02294922,0.9711914,0.03271484,0.190918,-0.6821289
1621,0.6875,0.0625,-1,-0.05810547,0.05029297,0.9516602,0.03271484,0.190918,-0.6821289
1622,0.5,0,-0.5,-0.05419922,0.03076172,0.9594727,0.03271484,0.190918,-0.6821289
1624,0.125,0.375,-0.25,-0.05419922,0.01513672,0.9711914,0.02539063,0.1967773,-0.6918945
1625,0.0625,-0.5,-0.4375,-0.03466797,0.03466797,0.9829102,0.02539063,0.1967773,-0.6918945
1627,0.375,0.25,-0.375,-0.05029297,0.03076172,0.9555664,0.02539063,0.1967773,-0.6918945
1628,0.875,-0.3125,-0.5625,-0.05810547,0.04638672,0.9633789,0.0234375,0.2011719,-0.6806641
1630,0.5625,0,-0.375,-0.06201172,0.01513672,0.9907227,0.0234375,0.2011719,-0.6806641
1631,-0.125,0,-0.3125,-0.06201172,0.03466797,0.9750977,0.0234375,0.2011719,-0.6806641
1633,0.4375,0.125,-0.9375,-0.04638672,0.01513672,0.9829102,0.0234375,0.2011719,-0.6806641
1634,0.5625,-0.5,-0.3125,-0.04248047,0.03857422,0.9672852,0.0234375,0.2011719,-0.6806641
1636,0.8125,0,-0.5,-0.06201172,0.03466797,0.9633789,0.0234375,0.2011719,-0.6806641
1637,0,0,-0.5625,-0.05810547,0.04638672,0.9750977,0.0234375,0.2011719,-0.6806641
1639,-0.25,0.25,-0.6875,-0.04638672,0.01513672,0.9829102,0.02539063,0.1943359,-0.6865234
1640,0.0625,0.25,-0.5,-0.07373047,0.03857422,0.9633789,0.02539063,0.1943359,-0.6865234
1642,0.1875,0.0625,-0.375,-0.05419922,0.03466797,0.9946289,0.02539063,0.1943359,-0.6865234
1643,0.3125,-0.1875,-0.25,-0.07373047,0.04248047,0.9829102,0.02197266,0.1918945,-0.6865234
1645,0.8125,-0.0625,-1,-0.06591797,0.05810547,0.9672852,0.02197266,0.1918945,-0.6865234
1646,0.5,-0.25,-0.5625,-0.06982422,0.01513672,0.9711914,0.02197266,0.1918945,-0.6865234
1648,0.0625,0.125,-0.625,-0.06201172,0.01513672,0.9868164,0.02099609,0.1850586,-0.6933594
1649,0.9375,-0.1875,-0.25,-0.05419922,0.03076172,0.9790039,0.02099609,0.1850586,-0.6933594
1651,0.25,0.125,-0.5,-0.05029297,0.01513672,0.9477539,0.02099609,0.1850586,-0.6933594
1652,0.5625,-0.3125,-0.5625,-0.04638672,0.03466797,0.9829102,0.02099609,0.1850586,-0.6933594
1654,0.4375,0.1875,-0.25,-0.05810547,0.03466797,0.9829102,0.03027344,0.1918945,-0.6904297
1656,0.5,-0.125,-0.5,-0.04248047,0.01513672,0.9750977,0.03027344,0.1918945,-0.6904297
1658,0.125,-0.0625,-0.6875,-0.06201172,0.02685547,0.9750977,0.03027344,0.1918945,-0.6904297
1659,0.3125,-0.625,-0.625,-0.05419922,0.03466797,0.9633789,0.02880859,0.1894531,-0.6865234
1661,0.1875,0,-0.6875,-0.04248047,0.03076172,0.9829102,0.02880859,0.1894531,-0.6865234
1662,0,0.125,-0.625,-0.04638672,0.05029297,0.9829102,0.02880859,0.1894531,-0.6865234
1664,0.1875,-0.25,-0.5,-0.05029297,0.04638672,0.9829102,0.02880859,0.1953125,-0.6933594
1665,0.375,0.5625,-0.5625,-0.05029297,0.04248047,0.9829102,0.02880859,0.1953125,-0.6933594
1667,0.3125,0.5625,-0.75,-0.05419922,0.03076172,0.9829102,0.02880859,0.1953125,-0.6933594
1668,0.3125,0.0625,-0.6875,-0.06591797,0.03466797,0.9829102,0.02880859,0.1953125,-0.6933594
1670,0.375,-0.0625,-0.3125,-0.07373047,0.03076172,0.9829102,0.02880859,0.190918,-0.6918945
1671,0.3125,0,-0.4375,-0.06591797,0.02685547,0.9907227,0.02880859,0.190918,-0.6918945
1673,0.3125,-0.125,-0.5625,-0.06982422,0.03076172,0.9829102,0.02880859,0.190918,-0.6918945
1674,0.6875,0.375,-0.5,-0.07373047,0.03076172,0.9829102,0.03027344,0.1967773,-0.6806641
1676,0.6875,-0.125,-0.75,-0.06591797,0.01123047,0.9868164,0.03027344,0.1967773,-0.6806641
1677,0.5,0.0625,-0.5,-0.05419922,0.05419922,0.9672852,0.03027344,0.1967773,-0.6806641
1679,1,-0.0625,-0.75,-0.06591797,0.03857422,0.9829102,0.02783203,0.1933594,-0.6865234
1680,0.4375,-0.1875,-0.625,-0.06201172,0.01513672,0.9555664,0.02783203,0.1933594,-0.6865234
1682,0.375,0,-0.6875,-0.05419922,0.03857422,0.9907227,0.02783203,0.1933594,-0.6865234
1683,0.625,0,-0.4375,-0.05419922,0.02685547,0.9555664,0.02783203,0.1933594,-0.6865234
1685,0,0.1875,-0.5,-0.05810547,0.03857422,0.9868164,0.02783203,0.1933594,-0.6865234
1686,0.25,0.25,-0.3125,-0.05419922,0.01513672,0.9829102,0.02783203,0.1933594,-0.6865234
1688,0.625,-0.0625,-0.5,-0.07373047,0.02685547,0.9711914,0.02783203,0.1933594,-0.6865234
1689,0.25,0,-0.625,-0.04638672,0.04248047,0.9555664,0.02197266,0.1967773,-0.6821289
1691,0.1875,-0.1875,-0.4375,-0.06591797,0.04248047,0.9672852,0.02197266,0.1967773,-0.6821289
1692,0.25,-0.4375,-0.625,-0.06591797,0.02685547,0.9516602,0.02197266,0.1967773,-0.6821289
1694,0.25,-0.3125,-0.625,-0.06591797,0.03857422,0.9868164,0.02880859,0.1875,-0.6889648
1695,0.625,0.25,-0.1875,-0.05810547,0.03466797,0.9790039,0.02880859,0.1875,-0.6889648
1697,-0.0625,0,-0.625,-0.05810547,0.01513672,0.9711914,0.02880859,0.1875,-0.6889648
1698,0.0625,-0.125,-0.0625,-0.07763672,0.03857422,0.9594727,0.02880859,0.1875,-0.6889648
1700,0.3125,-0.5,-0.4375,-0.06591797,0.04638672,0.9829102,0.02880859,0.1875,-0.6889648
1701,0.3125,0,-0.3125,-0.04638672,0.03076172,0.9790039,0.02880859,0.1875,-0.6889648
1703,0.5625,-0.4375,-0.625,-0.05419922,0.03466797,0.9594727,0.02880859,0.1875,-0.6889648
1704,0.1875,0.0625,-0.25,-0.06591797,0.04638672,0.9633789,0.02441406,0.1884766,-0.6889648
1706,0.125,-0.625,-0.6875,-0.05419922,0.03857422,0.9711914,0.02441406,0.1884766,-0.6889648
1707,0.5625,0,-0.8125,-0.06591797,0.01513672,0.9750977,0.02441406,0.1884766,-0.6889648
1709,0.5,0.5625,-0.1875,-0.05029297,0.03076172,0.9750977,0.02197266,0.1850586,-0.6835938
1710,0.625,-0.25,-0.25,-0.06591797,0.02294922,0.9829102,0.02197266,0.1850586,-0.6835938
1712,0.5625,0.125,-0.0625,-0.07373047,0.03857422,0.9672852,0.02197266,0.1850586,-0.6835938
1713,0.1875,-0.0625,-0.75,-0.05419922,0.04638672,0.9555664,0.03271484,0.1933594,-0.6835938
1715,0.5625,0,-1.0625,-0.04638672,0.03857422,0.9829102,0.03271484,0.1933594,-0.6835938
1716,0.5,0,-0.5625,-0.05419922,0.04248047,0.9750977,0.03271484,0.1933594,-0.6835938
1718,0.25,-0.3125,-0.5625,-0.05810547,0.05029297,0.9829102,0.03271484,0.1933594,-0.6835938
1719,0.25,0.125,-0.25,-0.05810547,0.03076172,0.9555664,0.03271484,0.1933594,-0.6875
1721,0.75,-0.1875,-0.5,-0.06201172,0.01904297,0.9711914,0.03271484,0.1933594,-0.6875
1722,0.3125,0.125,-0.5,-0.05029297,0.04248047,0.9672852,0.03271484,0.1933594,-0.6875
1724,0.125,-0.25,-0.375,-0.06982422,0.04248047,0.9868164,0.01953125,0.1943359,-0.6933594
1725,0.25,-0.125,-0.625,-0.06201172,0.03076172,0.9829102,0.01953125,0.1943359,-0.6933594
1727,-0.125,0.625,-0.3125,-0.06201172,0.04638672,0.9907227,0.01953125,0.1943359,-0.6933594
1728,0.25,0.125,-0.375,-0.06591797,0.02685547,0.9829102,0.01953125,0.1933594,-0.6767578
1730,1.0625,-0.1875,-0.6875,-0.05419922,0.03076172,0.9907227,0.01953125,0.1933594,-0.6767578
1731,0.5,0.25,-0.5,-0.06591797,0.03466797,0.9555664,0.01953125,0.1933594,-0.6767578
1733,0.3125,-0.0625,-0.5,-0.06201172,0.01513672,0.9750977,0.01953125,0.1933594,-0.6767578
1734,0.25,0,-0.375,-0.07373047,0.04638672,0.9829102,0.03271484,0.1850586,-0.6875
1736,0,0,-0.5,-0.06591797,0.05419922,0.9829102,0.03271484,0.1850586,-0.6875
1737,0.75,0.1875,-0.4375,-0.05810547,0.02685547,0.9633789,0.03271484,0.1850586,-0.6875
1739,0.1875,-0.375,-0.625,-0.05029297,0.03857422,0.9594727,0.01953125,0.1933594,-0.6875
1740,0.875,0.375,-0.4375,-0.05419922,0.03857422,0.9829102,0.01953125,0.1933594,-0.6875
1742,0.25,0.1875,-0.4375,-0.06201172,0.03466797,0.9829102,0.01953125,0.1933594,-0.6875
1743,0.75,0,-0.6875,-0.05419922,0.01513672,0.9633789,0.0234375,0.1967773,-0.6865234
1745,0.125,-0.25,-0.6875,-0.05810547,0.03466797,0.9790039,0.0234375,0.1967773,-0.6865234
1746,0.4375,-0.3125,-0.25,-0.04638672,0.03466797,0.9829102,0.0234375,0.1967773,-0.6865234
1748,0.3125,-0.3125,-0.75,-0.05810547,0.05029297,0.9672852,0.0234375,0.1967773,-0.6865234
1749,0.625,0.1875,-0.8125,-0.07373047,0.04248047,0.9633789,0.02539063,0.1918945,-0.6918945
1751,0.4375,-0.4375,-0.1875,-0.06591797,0.02294922,0.9555664,0.02539063,0.1918945,-0.6918945
1753,0.5,0.375,-0.625,-0.06591797,0.01513672,0.9711914,0.02539063,0.1918945,-0.6918945
1755,0.25,-0.4375,-0.5,-0.05419922,0.03857422,0.9438477,0.02685547,0.190918,-0.6821289
1756,0.3125,0,-0.6875,-0.05029297,0.01123047,0.9672852,0.02685547,0.190918,-0.6821289
1758,0.25,0,-0.125,-0.05029297,0.03466797,0.9633789,0.02685547,0.190918,-0.6821289
1759,0.875,-0.375,-0.3125,-0.06591797,0.03076172,0.9829102,0.02880859,0.1918945,-0.6904297
1761,0.1875,-0.25,-0.125,-0.05810547,0.04638672,0.9477539,0.02880859,0.1918945,-0.6904297
1762,0.0625,-0.4375,-0.6875,-0.07373047,0.03857422,0.9555664,0.02880859,0.1918945,-0.6904297
1764,0.0625,0,-0.125,-0.05419922,0.05419922,0.9672852,0.02880859,0.1918945,-0.6904297
1765,-0.0625,-0.9375,-0.5625,-0.04638672,0.04638672,0.9829102,0.02880859,0.1918945,-0.6904297
1767,0.25,0.3125,-0.4375,-0.05810547,0.04248047,0.9868164,0.02880859,0.1918945,-0.6904297
1768,0,0.5625,-0.6875,-0.06201172,0.03466797,0.9790039,0.02880859,0.1918945,-0.6904297
1770,0.625,-0.375,-0.25,-0.05810547,0.03857422,0.9946289,0.02099609,0.1967773,-0.6865234
1771,-0.0625,-0.0625,-0.6875,-0.05419922,0.03857422,0.9829102,0.02099609,0.1967773,-0.6865234
1773,0,-0.5625,-0.75,-0.05029297,0.01513672,0.9633789,0.02099609,0.1967773,-0.6865234
1774,0.625,0.3125,-0.375,-0.05810547,0.03466797,0.9790039,0.02880859,0.190918,-0.6821289
1776,0.125,-0.375,-0.625,-0.06201172,0.05029297,0.9477539,0.02880859,0.190918,-0.6821289
1777,0.1875,-0.25,-0.5625,-0.06591797,0.01513672,0.9633789,0.02880859,0.190918,-0.6821289
1779,0,-0.4375,-0.1875,-0.05419922,0.02685547,0.9750977,0.02880859,0.190918,-0.6821289
1780,0.4375,-0.375,-0.4375,-0.06982422,0.02294922,0.9829102,0.02880859,0.190918,-0.6821289
1782,0.3125,0.125,-0.5625,-0.04638672,0.01513672,0.9946289,0.02880859,0.190918,-0.6821289
1783,0.375,0.25,-0.25,-0.06201172,0.03466797,0.9868164,0.02880859,0.190918,-0.6821289
1785,-0.0625,-0.25,-0.3125,-0.06591797,0.04248047,0.9633789,0.02197266,0.1933594,-0.6791992
1786,0.3125,0.125,-0.5625,-0.04248047,0.04248047,0.9711914,0.02197266,0.1933594,-0.6791992
1788,0.625,-0.0625,-0.5625,-0.06201172,0.01123047,0.9594727,0.02197266,0.1933594,-0.6791992
1789,0.375,-0.375,-0.375,-0.04248047,0.04638672,0.9672852,0.03125,0.184082,-0.6875
1791,0.3125,-0.125,-0.4375,-0.05419922,0.04638672,0.9633789,0.03125,0.184082,-0.6875
1792,0.25,-0.0625,-0.375,-0.07373047,0.03076172,0.9633789,0.03125,0.184082,-0.6875
1794,0,-0.0625,-0.8125,-0.05419922,0.05029297,0.9750977,0.03125,0.1943359,-0.6850586
1795,0.5,-0.4375,-0.1875,-0.06201172,0.02685547,0.9555664,0.03125,0.1943359,-0.6850586
1797,0.0625,-0.1875,-0.5,-0.05419922,0.05029297,0.9829102,0.03125,0.1943359,-0.6850586
1798,0.3125,0.0625,-0.1875,-0.06201172,0.03857422,0.9790039,0.03125,0.1943359,-0.6850586
1800,0.375,0,-1.0625,-0.08154297,0.02294922,0.9711914,0.02685547,0.1943359,-0.6821289
1801,0.25,-0.1875,-0.25,-0.05029297,0.04248047,0.9829102,0.02685547,0.1943359,-0.6821289
1803,0.125,-0.0625,-0.4375,-0.05029297,0.02294922,0.9868164,0.02685547,0.1943359,-0.6821289
1804,-0.125,-0.0625,-0.5,-0.06982422,0.03857422,0.9829102,0.02197266,0.1967773,-0.6889648
1806,0.5625,0,-0.5625,-0.06201172,0.03076172,0.9868164,0.02197266,0.1967773,-0.6889648
1807,0.25,0.125,-0.625,-0.06591797,0.04638672,0.9750977,0.02197266,0.1967773,-0.6889648
1809,0.5625,0.0625,-0.375,-0.05029297,0.04248047,0.9672852,0.02685547,0.1918945,-0.6918945
1810,0.375,0.125,-0.75,-0.07373047,0.04248047,0.9516602,0.02685547,0.1918945,-0.6918945
1812,0.3125,-0.1875,-0.4375,-0.05029297,0.02294922,0.9555664,0.02685547,0.1918945,-0.6918945
1813,0.3125,-0.375,-0.0625,-0.05810547,0.05029297,0.9985352,0.02685547,0.1918945,-0.6918945
1815,0.125,-0.125,-0.5,-0.05419922,0.04248047,0.9829102,0.02880859,0.1894531,-0.6933594
1816,0.5625,0,-0.25,-0.05029297,0.03076172,0.9790039,0.02880859,0.1894531,-0.6933594
1818,0.25,-0.5625,-0.6875,-0.04638672,0.05029297,0.9711914,0.02880859,0.1894531,-0.6933594
1819,0,0.0625,-0.6875,-0.05810547,0.03076172,0.9711914,0.02539063,0.1953125,-0.6850586
1821,0.4375,-0.25,-0.625,-0.06201172,0.03857422,0.9633789,0.02539063,0.1953125,-0.6850586
1822,0,-0.375,-0.5,-0.06591797,0.03857422,0.9829102,0.02539063,0.1953125,-0.6850586
1824,0.25,-0.1875,0.0625,-0.04248047,0.03857422,0.9633789,0.03271484,0.1894531,-0.6835938
1825,0.5,-0.1875,-0.8125,-0.06201172,0.05419922,0.9672852,0.03271484,0.1894531,-0.6835938
1827,0.6875,-0.1875,-0.6875,-0.04248047,0.03857422,0.9829102,0.03271484,0.1894531,-0.6835938
1828,0.0625,0.3125,-0.4375,-0.05810547,0.03466797,0.9829102,0.03271484,0.1894531,-0.6835938
1830,0.1875,-0.25,-0.6875,-0.05419922,0.05029297,0.9868164,0.03271484,0.1894531,-0.6835938
1831,0.375,0.0625,-0.4375,-0.05029297,0.03466797,0.9829102,0.03271484,0.1894531,-0.6835938
1833,0.1875,-0.4375,-0.25,-0.05419922,0.02685547,0.9750977,0.03271484,0.1894531,-0.6835938
1834,-0.125,-0.1875,-0.625,-0.05419922,0.02685547,0.9868164,0.01855469,0.1850586,-0.6791992
1836,0.625,-0.5,-0.5625,-0.06591797,0.03466797,0.9672852,0.01855469,0.1850586,-0.6791992
1837,0.125,-0.625,-0.625,-0.05419922,0.02685547,0.9829102,0.01855469,0.1850586,-0.6791992
1839,0.4375,0,-0.3125,-0.05419922,0.05029297,0.9829102,0.03027344,0.1967773,-0.6962891
1840,0.25,0,-0.25,-0.05029297,0.03466797,0.9633789,0.03027344,0.1967773,-0.6962891
1842,0.3125,-0.1875,-0.5,-0.05029297,0.04638672,0.9672852,0.03027344,0.1967773,-0.6962891
1843,-0.125,0.0625,-0.5,-0.04248047,0.04248047,0.9711914,0.03027344,0.1967773,-0.6962891
1845,0.5,0.0625,-0.6875,-0.05419922,0.03857422,0.9750977,0.03027344,0.1967773,-0.6962891
1846,0.625,-0.0625,-0.625,-0.06591797,0.05419922,0.9672852,0.03027344,0.1967773,-0.6962891
1848,0.5,-0.4375,0,-0.04638672,0.03857422,0.9477539,0.03027344,0.1967773,-0.6962891
1850,0,0,-0.1875,-0.06591797,0.05419922,0.9829102,0.03027344,0.190918,-0.6791992
1852,0.1875,-0.25,-0.625,-0.05419922,0.03076172,0.9750977,0.03027344,0.190918,-0.6791992
1853,0.5,-0.1875,-0.5,-0.05810547,0.03076172,0.9829102,0.03027344,0.190918,-0.6791992
1855,0.3125,-0.25,-0.4375,-0.03076172,0.03857422,0.9829102,0.02880859,0.1933594,-0.6889648
1856,0,0.1875,-0.4375,-0.05029297,0.05419922,0.9829102,0.02880859,0.1933594,-0.6889648
1858,0.5,-0.5625,-0.375,-0.05029297,0.05810547,0.9555664,0.02880859,0.1933594,-0.6889648
1859,0.5625,-0.8125,-0.75,-0.05029297,0.03857422,0.9672852,0.03027344,0.1953125,-0.6918945
1861,0.6875,0.0625,-0.625,-0.05419922,0.04248047,0.9790039,0.03027344,0.1953125,-0.6918945
1862,0.4375,0.375,-1,-0.03857422,0.01513672,0.9672852,0.03027344,0.1953125,-0.6918945
1864,0.5625,0.0625,-0.5,-0.06591797,0.03466797,0.9711914,0.03027344,0.1953125,-0.6918945
1865,0.5625,-0.25,-0.1875,-0.05419922,0.05419922,0.9829102,0.02685547,0.190918,-0.6904297
1867,0.125,-0.5,-0.75,-0.06591797,0.03857422,0.9711914,0.02685547,0.190918,-0.6904297
1868,0.0625,0,-0.3125,-0.07373047,0.02294922,0.9555664,0.02685547,0.190918,-0.6904297
1870,0.0625,-0.1875,-0.4375,-0.05810547,0.03857422,0.9829102,0.02685547,0.1943359,-0.6821289
1871,0.1875,-0.25,-0.8125,-0.06591797,0.03076172,0.9868164,0.02685547,0.1943359,-0.6821289
1873,0.4375,-0.3125,-0.625,-0.05810547,0.04248047,0.9829102,0.02685547,0.1943359,-0.6821289
1874,0.3125,-0.375,-0.5,-0.06201172,0.03466797,0.9672852,0.02880859,0.1977539,-0.6918945
1876,0,-0.3125,-0.3125,-0.04638672,0.03857422,0.9555664,0.02880859,0.1977539,-0.6918945
1877,0.875,0,-1.0625,-0.04638672,0.01513672,0.9672852,0.02880859,0.1977539,-0.6918945
1879,0.5625,0.1875,-1.0625,-0.05029297,0.05029297,0.9711914,0.02880859,0.1977539,-0.6918945
1880,0,0.1875,0.0625,-0.05810547,0.04248047,0.9868164,0.03027344,0.1875,-0.6850586
1882,0,-0.1875,-0.25,-0.05419922,0.04248047,0.9555664,0.03027344,0.1875,-0.6850586
1883,0.6875,-0.375,-0.25,-0.06201172,0.03857422,0.9829102,0.03027344,0.1875,-0.6850586
1885,0,0.125,-0.25,-0.07763672,0.01904297,0.9907227,0.02783203,0.190918,-0.6850586
1886,0,0,-0.125,-0.05810547,0.03466797,0.9868164,0.02783203,0.190918,-0.6850586
1888,0.3125,-0.125,-0.6875,-0.04638672,0.02294922,0.9790039,0.02783203,0.190918,-0.6850586
1889,0.3125,-0.5625,-0.625,-0.06982422,0.02685547,0.9829102,0.03027344,0.1967773,-0.6806641
1891,0.5,0.25,-0.125,-0.05419922,0.01513672,0.9790039,0.03027344,0.1967773,-0.6806641
1892,0.25,0.375,0,-0.05810547,0.04248047,0.9868164,0.03027344,0.1967773,-0.6806641
1894,0,-0.4375,-0.1875,-0.06591797,0.04638672,0.9633789,0.03027344,0.1967773,-0.6806641
1895,0.375,0.1875,-0.375,-0.06591797,0.03466797,0.9985352,0.03027344,0.1967773,-0.6806641
1897,0.6875,0,-0.25,-0.05810547,0.04248047,0.9829102,0.03027344,0.1967773,-0.6806641
1898,0.4375,-0.25,-0.375,-0.04248047,0.007324219,0.9633789,0.03027344,0.1967773,-0.6806641
1900,0,-0.25,-0.5,-0.04638672,0.05029297,0.9672852,0.02539063,0.1992188,-0.6889648
1901,1.1875,-0.375,-0.5625,-0.06982422,0.03857422,0.9711914,0.02539063,0.1992188,-0.6889648
1903,-0.0625,-0.6875,-0.6875,-0.06201172,0.03466797,0.9633789,0.02539063,0.1992188,-0.6889648
1904,0.0625,-0.4375,-0.8125,-0.06201172,0.03076172,0.9829102,0.03271484,0.1918945,-0.6918945
1906,0.9375,-0.125,-0.625,-0.01513672,0.04638672,0.9516602,0.03271484,0.1918945,-0.6918945
1907,0.25,-0.5625,-0.625,-0.06982422,0.05029297,0.9829102,0.03271484,0.1918945,-0.6918945
1909,0.8125,0.4375,-0.5,-0.04638672,0.04638672,0.9829102,0.03271484,0.1918945,-0.6918945
1910,0.5,-0.3125,-0.5625,-0.06201172,0.03857422,0.9829102,0.03271484,0.1918945,-0.6918945
1912,0.125,-0.125,-0.8125,-0.05810547,0.01513672,0.9829102,0.03271484,0.1918945,-0.6918945
1913,-0.25,-0.0625,-0.625,-0.06982422,0.03466797,0.9829102,0.03271484,0.1918945,-0.6918945
1915,0.125,0.125,-0.25,-0.05810547,0.03857422,0.9829102,0.03027344,0.1933594,-0.6850586
1916,1.125,-0.0625,-0.8125,-0.06201172,0.05029297,0.9750977,0.03027344,0.1933594,-0.6850586
1918,0.0625,0,-0.6875,-0.06201172,0.05029297,0.9750977,0.03027344,0.1933594,-0.6850586
1919,0.1875,0.625,-0.25,-0.06201172,0.03076172,0.9829102,0.02441406,0.1894531,-0.6806641
1921,0.5,-0.25,-0.5,-0.05810547,0.05029297,0.9672852,0.02441406,0.1894531,-0.6806641
1922,0.625,0.125,-1,-0.04248047,0.02294922,0.9711914,0.02441406,0.1894531,-0.6806641
1924,0.875,-0.1875,-0.1875,-0.04248047,0.04248047,0.9594727,0.02783203,0.2026367,-0.6889648
1925,0.5,-0.1875,-1,-0.05810547,0.04248047,0.9477539,0.02783203,0.2026367,-0.6889648
1927,0.4375,-0.0625,-0.25,-0.08154297,0.04248047,0.9672852,0.02783203,0.2026367,-0.6889648
1928,0.8125,0.3125,-0.375,-0.05419922,0.03466797,0.9672852,0.02783203,0.2026367,-0.6889648
1930,0.1875,0,-0.375,-0.05810547,0.03466797,0.9829102,0.02441406,0.1977539,-0.6933594
1931,0,-0.0625,-0.6875,-0.05419922,0.04248047,0.9829102,0.02441406,0.1977539,-0.6933594
1933,0.3125,0,-0.375,-0.06201172,0.05029297,0.9829102,0.02441406,0.1977539,-0.6933594
1934,-0.0625,0.125,-0.4375,-0.06591797,0.04248047,0.9633789,0.02441406,0.1967773,-0.6875
1936,0.3125,-0.1875,-0.75,-0.06201172,0.01513672,0.9594727,0.02441406,0.1967773,-0.6875
1937,0.375,0.125,0,-0.06591797,0.03466797,0.9711914,0.02441406,0.1967773,-0.6875
1939,0.125,0,-0.75,-0.05810547,0.03466797,0.9711914,0.02197266,0.1953125,-0.6850586
1940,0.25,-0.125,-0.5625,-0.06201172,0.03857422,0.9633789,0.02197266,0.1953125,-0.6850586
1942,0.3125,-0.5,-0.5625,-0.03466797,0.03076172,0.9790039,0.02197266,0.1953125,-0.6850586
1943,0.125,0.5,-0.75,-0.06591797,0.03466797,0.9555664,0.02197266,0.1953125,-0.6850586
1945,0.0625,-0.0625,-0.375,-0.06982422,0.04248047,0.9790039,0.02099609,0.1953125,-0.6875
1948,0.625,0,-0.4375,-0.07373047,0.03076172,0.9750977,0.02099609,0.1953125,-0.6875
1950,0.1875,-0.1875,-0.5625,-0.06201172,0.04248047,0.9868164,0.02099609,0.1953125,-0.6875
1951,0.5625,-0.25,-0.875,-0.05810547,0.03076172,0.9829102,0.02685547,0.1953125,-0.6889648
1953,-0.125,-0.3125,-0.1875,-0.05029297,0.06201172,0.9868164,0.02685547,0.1953125,-0.6889648
1954,0.3125,0.0625,-0.75,-0.06201172,0.02294922,0.9594727,0.02685547,0.1953125,-0.6889648
1956,0.0625,0.25,-0.375,-0.05029297,0.03857422,0.9829102,0.02685547,0.1967773,-0.6933594
1957,0.3125,-0.3125,-1.0625,-0.03857422,0.03857422,0.9633789,0.02685547,0.1967773,-0.6933594
1959,0.3125,-0.25,-0.5,-0.05810547,0.05810547,0.9711914,0.02685547,0.1967773,-0.6933594
1960,0.25,0.3125,-0.125,-0.05810547,0.03857422,0.9829102,0.02685547,0.1967773,-0.6933594
1962,0.3125,-0.125,-0.375,-0.05810547,0.03076172,0.9711914,0.02685547,0.1967773,-0.6933594
1963,0.25,-0.625,-0.0625,-0.05810547,0.03076172,0.9868164,0.02685547,0.1967773,-0.6933594
1965,0.5625,0.3125,-0.625,-0.06591797,0.04638672,0.9907227,0.02685547,0.1967773,-0.6933594
1966,0.1875,0.0625,-0.8125,-0.07373047,0.03466797,0.9829102,0.02685547,0.1967773,-0.6933594
1968,0.3125,-0.1875,-0.875,-0.06982422,0.03857422,0.9790039,0.02685547,0.1967773,-0.6933594
1969,0.5625,-0.1875,-0.625,-0.07373047,0.03857422,0.9633789,0.02685547,0.1967773,-0.6933594
1971,0,0.5,-0.1875,-0.05810547,0.04638672,0.9594727,0.02197266,0.190918,-0.6972656
1972,0.375,-0.125,-0.4375,-0.05810547,0.04248047,0.9750977,0.02197266,0.190918,-0.6972656
1974,0.1875,0,-0.25,-0.04638672,0.03466797,0.9633789,0.02197266,0.190918,-0.6972656
1975,-0.0625,-0.3125,-0.5625,-0.07373047,0.04248047,0.9829102,0.02197266,0.190918,-0.6972656
1977,0.5,0.1875,-0.5,-0.06201172,0.03076172,0.9868164,0.02197266,0.190918,-0.6972656
1978,-0.125,-0.25,-1,-0.05419922,0.05029297,0.9711914,0.02197266,0.190918,-0.6972656
1980,1.125,-0.375,-0.5625,-0.05029297,0.01513672,0.9868164,0.02197266,0.190918,-0.6972656
1981,0.1875,-0.25,-0.3125,-0.03466797,0.03857422,0.9829102,0.03466797,0.2011719,-0.6948242
1983,0.1875,-0.1875,-0.125,-0.07373047,0.03466797,0.9829102,0.03466797,0.2011719,-0.6948242
1984,0.25,-0.1875,-0.625,-0.05810547,0.03466797,0.9829102,0.03466797,0.2011719,-0.6948242
1986,0.375,0.25,-0.4375,-0.07373047,0.04638672,0.9711914,0.02685547,0.1918945,-0.6918945
1987,0.3125,0,-0.5625,-0.08154297,0.03857422,0.9711914,0.02685547,0.1918945,-0.6918945
1989,0,-0.5625,-0.6875,-0.03857422,0.02685547,0.9516602,0.02685547,0.1918945,-0.6918945
1990,0.1875,-0.5,-0.8125,-0.06201172,0.02294922,0.9477539,0.03125,0.1953125,-0.6806641
1992,0.1875,-0.125,-0.5625,-0.08544922,0.05419922,0.9711914,0.03125,0.1953125,-0.6806641
1993,0.0625,-0.1875,-0.75,-0.06201172,0.03857422,0.9711914,0.03125,0.1953125,-0.6806641
1995,0.375,0,-0.875,-0.04638672,0.01513672,0.9711914,0.03125,0.1953125,-0.6806641
1996,0.5625,-0.25,-0.4375,-0.04248047,0.03466797,0.9633789,0.02685547,0.1953125,-0.6918945
1998,0.5,-0.5,-0.5,-0.07763672,0.03466797,0.9711914,0.02685547,0.1953125,-0.6918945
1999,0.625,0.3125,-0.1875,-0.06201172,0.01513672,0.9594727,0.02685547,0.1953125,-0.6918945
2001,0.9375,-0.1875,-0.625,-0.05029297,0.05029297,0.9750977,0.02783203,0.1875,-0.6850586
2002,0.3125,-0.1875,-0.1875,-0.05810547,0.05029297,0.9750977,0.02783203,0.1875,-0.6850586
2004,0.5,0.0625,-0.8125,-0.05029297,0.03076172,0.9829102,0.02783203,0.1875,-0.6850586
2005,0.5,-0.3125,-0.25,-0.05419922,0.05029297,0.9868164,0.02783203,0.1894531,-0.6777344
2007,0.625,-0.0625,-0.5625,-0.05810547,0.03076172,0.9711914,0.02783203,0.1894531,-0.6777344
2008,0.25,0,-0.375,-0.05419922,0.03857422,0.9829102,0.02783203,0.1894531,-0.6777344
2010,0.3125,-0.4375,-0.4375,-0.05810547,0.03466797,0.9750977,0.02783203,0.1894531,-0.6777344
2011,0.0625,0.25,-0.25,-0.07373047,0.02685547,0.9711914,0.02441406,0.1943359,-0.7016602
2013,0.1875,-0.1875,-0.5,-0.06201172,0.04248047,0.9750977,0.02441406,0.1943359,-0.7016602
2014,0.0625,-0.1875,-0.1875,-0.06201172,0.02685547,0.9711914,0.02441406,0.1943359,-0.7016602
2016,0.3125,-0.375,-0.8125,-0.05419922,0.04248047,0.9672852,0.02197266,0.1992188,-0.6972656
2017,0.4375,-0.5,-0.25,-0.06982422,0.03076172,0.9594727,0.02197266,0.1992188,-0.6972656
2019,0.375,-0.625,-0.5625,-0.05029297,0.05419922,0.9829102,0.02197266,0.1992188,-0.6972656
2020,0.25,-0.25,-0.625,-0.05419922,0.03857422,0.9829102,0.02783203,0.1933594,-0.6933594
2022,0.375,-0.75,-0.125,-0.06201172,0.03857422,0.9829102,0.02783203,0.1933594,-0.6933594
2023,0.625,-0.375,-0.75,-0.06591797,0.05029297,0.9633789,0.02783203,0.1933594,-0.6933594
2025,-0.0625,-0.25,-0.1875,-0.06982422,0.04248047,0.9750977,0.02783203,0.1933594,-0.6933594
2026,-0.1875,-0.1875,-0.25,-0.04248047,0.03466797,0.9868164,0.02880859,0.1943359,-0.6918945
2028,0.5625,-0.125,-0.25,-0.05029297,0.05419922,0.9750977,0.02880859,0.1943359,-0.6918945
2029,-0.0625,-0.4375,-0.5625,-0.05419922,0.02685547,0.9672852,0.02880859,0.1943359,-0.6918945
2031,0.6875,-0.5625,-0.375,-0.06201172,0.02685547,0.9672852,0.02685547,0.1943359,-0.6875
2032,0.25,-0.5625,-0.375,-0.05029297,0.03076172,0.9868164,0.02685547,0.1943359,-0.6875
2034,0.1875,-0.1875,-0.5625,-0.03466797,0.02685547,0.9790039,0.02685547,0.1943359,-0.6875
2035,0.125,-0.5,-0.625,-0.05810547,0.05029297,0.9829102,0.02197266,0.1977539,-0.6904297
2037,0.375,-0.5625,-0.5,-0.05419922,0.03076172,0.9829102,0.02197266,0.1977539,-0.6904297
2038,0.375,-0.125,-0.5,-0.07373047,0.02294922,0.9711914,0.02197266,0.1977539,-0.6904297
2040,0.5625,-0.3125,-0.5,-0.05419922,0.04638672,0.9672852,0.02197266,0.1977539,-0.6904297
2041,0,-0.3125,-0.75,-0.06982422,0.05029297,0.9750977,0.02197266,0.1977539,-0.6904297
2043,0.6875,-0.25,-0.1875,-0.04638672,0.02294922,0.9829102,0.02197266,0.1977539,-0.6904297
2045,0.5,0.1875,-0.625,-0.05029297,0.05029297,0.9672852,0.02197266,0.1977539,-0.6904297
2047,0.4375,0,-0.0625,-0.05029297,0.01904297,0.9594727,0.02880859,0.1943359,-0.6821289
2048,0.5625,-0.0625,-0.5625,-0.06591797,0.03076172,0.9750977,0.02880859,0.1943359,-0.6821289
2050,0.3125,0,-0.5,-0.05810547,0.04638672,0.9672852,0.02880859,0.1943359,-0.6821289
2051,0.1875,0.1875,-0.625,-0.06591797,0.05810547,0.9516602,0.02441406,0.1918945,-0.6904297
2053,0.125,-0.625,-0.1875,-0.05810547,0.04638672,0.9985352,0.02441406,0.1918945,-0.6904297
2054,0,-0.625,0,-0.05810547,0.04248047,0.9868164,0.02441406,0.1918945,-0.6904297
2056,0.5,0.25,-1.125,-0.05029297,0.04248047,0.9594727,0.02441406,0.1918945,-0.6904297
2057,0.625,-0.3125,-0.75,-0.05810547,0.03857422,0.9555664,0.02441406,0.1918945,-0.6904297
2059,0.8125,-0.1875,-0.4375,-0.05810547,0.02685547,0.9672852,0.02441406,0.1918945,-0.6904297
2060,0.5625,0,-0.8125,-0.06201172,0.04248047,0.9594727,0.02441406,0.1918945,-0.6904297
2062,-0.0625,-0.5,-0.0625,-0.06982422,0.02685547,0.9516602,0.02099609,0.1933594,-0.6889648
2063,0.5625,-0.4375,-0.4375,-0.05419922,0.03857422,0.9633789,0.02099609,0.1933594,-0.6889648
2065,0.1875,-0.4375,-0.4375,-0.06982422,0.05029297,0.9555664,0.02099609,0.1933594,-0.6889648
2066,0.3125,0.375,-0.5,-0.05029297,0.03076172,0.9633789,0.03125,0.1933594,-0.6850586
2068,0.125,0.0625,-0.4375,-0.04638672,0.01513672,0.9868164,0.03125,0.1933594,-0.6850586
2069,0.375,-0.4375,-0.5625,-0.05029297,0.04248047,0.9829102,0.03125,0.1933594,-0.6850586
2071,0.5,-0.25,-0.125,-0.06591797,0.02685547,0.9829102,0.02880859,0.1967773,-0.6889648
2072,0.5,-0.3125,-0.5625,-0.06982422,0.03466797,0.9829102,0.02880859,0.1967773,-0.6889648
