Packet number,Gyroscope X (deg/s),Gyroscope Y (deg/s),Gyroscope Z (deg/s),Accelerometer X (g),Accelerometer Y (g),Accelerometer Z (g),Magnetometer X (G),Magnetometer Y (G),Magnetometer Z (G)
3,-0.1875,-0.1875,0.1875,-0.05419922,0.01123047,0.9868164,0.09326172,-0.109375,-0.3081055
5,-0.1875,-0.1875,0.1875,-0.05419922,0.01123047,0.9868164,0.09326172,-0.109375,-0.3081055
6,-0.1875,-0.8125,0.6875,-0.04248047,0.003417969,0.9868164,0.1000977,-0.1142578,-0.3095703
8,-0.4375,-0.5,0.0625,-0.03857422,-0.003417969,0.9633789,0.1000977,-0.1142578,-0.3095703
9,-0.1875,-0.875,0.1875,-0.03466797,0.007324219,0.9790039,0.1000977,-0.1142578,-0.3095703
11,-0.8125,-0.0625,0.1875,-0.04248047,0.01513672,0.9594727,0.08837891,-0.112793,-0.3193359
12,-0.75,0.125,0.6875,-0.02685547,0.01513672,0.9672852,0.08837891,-0.112793,-0.3193359
14,-0.1875,-0.3125,0.125,-0.04248047,0.02685547,0.9672852,0.08837891,-0.112793,-0.3193359
15,-0.125,-0.375,0.375,-0.01123047,0.007324219,0.9711914,0.08984375,-0.105957,-0.3139648
17,0,-0.4375,-0.375,-0.01513672,-0.003417969,0.9829102,0.08984375,-0.105957,-0.3139648
18,-0.375,-0.1875,0,-0.03857422,0.01513672,0.9633789,0.08984375,-0.105957,-0.3139648
20,-0.4375,-0.3125,-0.5,-0.04248047,0.01904297,0.9672852,0.09667969,-0.1025391,-0.3081055
21,-0.5625,0.125,0,-0.04248047,0.02685547,0.9829102,0.09667969,-0.1025391,-0.3081055
23,-0.875,-0.25,0.0625,-0.06201172,0.007324219,0.9711914,0.09667969,-0.1025391,-0.3081055
24,-1.1875,-0.4375,0.1875,-0.03857422,0.01513672,0.9672852,0.09667969,-0.1025391,-0.3081055
26,-1.6875,-0.375,0.125,-0.03076172,0.007324219,0.9750977,0.09667969,-0.1025391,-0.3081055
27,-1,-0.5625,0.0625,-0.03076172,0.003417969,0.9750977,0.09667969,-0.1025391,-0.3081055
29,-1.375,-0.6875,0,-0.04248047,0.02685547,0.9594727,0.09667969,-0.1025391,-0.3081055
30,-1.0625,-0.6875,0.5,-0.01904297,0,0.9594727,0.09082031,-0.112793,-0.3110352
32,-0.8125,-0.3125,0.1875,-0.02685547,-0.003417969,0.9829102,0.09082031,-0.112793,-0.3110352
33,-1.4375,-0.0625,1.25,-0.03857422,0.01513672,0.9829102,0.09082031,-0.112793,-0.3110352
35,-0.9375,-0.5,0.1875,-0.05029297,0.01123047,0.9594727,0.08837891,-0.1069336,-0.3095703
36,-1.3125,-0.3125,0.75,-0.05419922,-0.007324219,0.9829102,0.08837891,-0.1069336,-0.3095703
38,-1.375,-0.25,0.875,-0.01513672,0.007324219,0.9829102,0.08837891,-0.1069336,-0.3095703
39,-1.75,-0.3125,0.9375,-0.03466797,0.01123047,0.9672852,0.08837891,-0.1069336,-0.3095703
41,-1.875,-0.4375,1.4375,-0.05029297,-0.003417969,0.9829102,0.08837891,-0.1069336,-0.3095703
42,-2.0625,-0.75,1.375,-0.02685547,0.007324219,0.9829102,0.08837891,-0.1069336,-0.3095703
44,-2.3125,-0.5,1.375,-0.04248047,0.01513672,0.9672852,0.08837891,-0.1069336,-0.3095703
45,-2.5,-0.4375,1.6875,-0.03857422,0.01513672,0.9672852,0.08398438,-0.1118164,-0.3027344
47,-2.5625,0.0625,1.9375,-0.05419922,-0.003417969,0.9750977,0.08398438,-0.1118164,-0.3027344
48,-2.75,-0.3125,1.875,-0.02685547,0.003417969,0.9672852,0.08398438,-0.1118164,-0.3027344
50,-1.75,1.0625,1.75,-0.03466797,-0.003417969,0.9516602,0.09326172,-0.105957,-0.3139648
51,-1.875,0.8125,1.9375,-0.03466797,0.007324219,0.9711914,0.09326172,-0.105957,-0.3139648
53,-1.625,0.25,1.3125,-0.06591797,0.03076172,0.9516602,0.09326172,-0.105957,-0.3139648
54,-2.1875,-0.0625,1.5625,-0.03857422,0.02294922,0.9750977,0.09423828,-0.1118164,-0.3178711
56,-1.75,0.5625,1.75,-0.003417969,0,0.9516602,0.09423828,-0.1118164,-0.3178711
57,-2.3125,0.375,1.5625,-0.007324219,0.003417969,0.9829102,0.09423828,-0.1118164,-0.3178711
59,-1.9375,0.75,1.4375,-0.05029297,0.01123047,0.9790039,0.09423828,-0.1118164,-0.3178711
60,-1.5,0.4375,1.3125,-0.05419922,0.003417969,0.9790039,0.09179688,-0.109375,-0.3056641
62,-1,1,1.125,-0.03076172,-0.003417969,0.9555664,0.09179688,-0.109375,-0.3056641
63,-0.875,1.5,1.1875,-0.02685547,0,0.9672852,0.09179688,-0.109375,-0.3056641
65,-0.375,1.4375,0.9375,-0.03076172,0,0.9829102,0.08837891,-0.1142578,-0.3237305
66,0.0625,1.5,0.8125,-0.01513672,0.007324219,0.9516602,0.08837891,-0.1142578,-0.3237305
68,0,1.9375,0.6875,-0.03076172,-0.01513672,0.9672852,0.08837891,-0.1142578,-0.3237305
69,1.1875,1.5625,0.5625,-0.03857422,0.02685547,0.9477539,0.09082031,-0.1108398,-0.3193359
71,0.875,2,0.3125,-0.02685547,0.007324219,0.9868164,0.09082031,-0.1108398,-0.3193359
72,0.9375,1.625,0.3125,-0.03466797,0.007324219,0.9555664,0.09082031,-0.1108398,-0.3193359
74,1.25,1.9375,0.5,-0.03857422,0.003417969,0.9672852,0.09082031,-0.1108398,-0.3193359
75,0.75,2.0625,0,-0.04248047,0,0.9555664,0.08984375,-0.1108398,-0.3178711
77,0.125,1.375,0.1875,-0.06591797,0.01123047,0.9907227,0.08984375,-0.1108398,-0.3178711
78,0.25,1.25,0.375,-0.05419922,0.01123047,0.9477539,0.08984375,-0.1108398,-0.3178711
80,0.25,1.25,0.125,-0.03466797,0.003417969,0.9829102,0.09667969,-0.1142578,-0.3081055
81,-0.0625,1.0625,0.6875,-0.05029297,-0.01513672,0.9868164,0.09667969,-0.1142578,-0.3081055
83,0.3125,0.6875,0.6875,-0.05029297,-0.007324219,0.9633789,0.09667969,-0.1142578,-0.3081055
84,-0.25,1,0.75,-0.02685547,-0.003417969,0.9868164,0.08837891,-0.112793,-0.3110352
86,-0.5,0.5625,0.6875,-0.02685547,-0.01513672,0.9829102,0.08837891,-0.112793,-0.3110352
87,-0.4375,0.75,0.375,-0.05419922,0.007324219,0.9750977,0.08837891,-0.112793,-0.3110352
89,-0.25,0.125,0.625,-0.05029297,0.01513672,0.9594727,0.08837891,-0.112793,-0.3110352
90,0.25,0.5625,1.25,-0.03076172,0.01513672,0.9750977,0.08837891,-0.112793,-0.3110352
92,-0.0625,0.875,0.375,-0.04248047,-0.007324219,0.9555664,0.08837891,-0.112793,-0.3110352
93,0.25,1,0.3125,-0.03857422,-0.003417969,0.9633789,0.08837891,-0.112793,-0.3110352
95,0.3125,1.0625,0.125,-0.03466797,0.01123047,0.9633789,0.08398438,-0.1142578,-0.3110352
96,0,1.4375,0.375,-0.02294922,0.01123047,0.9594727,0.08398438,-0.1142578,-0.3110352
98,0.6875,1.25,0.1875,-0.03076172,0.007324219,0.9672852,0.08398438,-0.1142578,-0.3110352
100,0.25,0.625,0.375,-0.03466797,0.01513672,0.9516602,0.09326172,-0.112793,-0.3125
102,0.5625,0.75,0.0625,-0.04248047,0.01123047,0.9711914,0.09326172,-0.112793,-0.3125
103,0.5625,0.9375,-0.0625,-0.05810547,0,0.9633789,0.09326172,-0.112793,-0.3125
105,0.5,0.625,0.125,-0.04248047,0.007324219,0.9829102,0.09326172,-0.112793,-0.3125
106,1.375,1.5625,-0.0625,-0.01513672,0.007324219,0.9594727,0.09326172,-0.112793,-0.3125
108,0.5,1.3125,0,-0.03466797,0.007324219,0.9829102,0.09326172,-0.112793,-0.3125
109,0.875,1.5625,-0.125,-0.04248047,0.003417969,0.9594727,0.09326172,-0.112793,-0.3125
111,0.875,0.9375,-0.4375,-0.03076172,0.01513672,0.9477539,0.09326172,-0.1108398,-0.3154297
112,1.5625,1.875,-0.4375,-0.05419922,-0.01904297,0.9790039,0.09326172,-0.1108398,-0.3154297
114,1.375,1.375,0,-0.02685547,0.01513672,0.9946289,0.09326172,-0.1108398,-0.3154297
115,1.125,1.375,-0.375,-0.03076172,-0.01123047,0.9438477,0.08740234,-0.109375,-0.3125
117,1,1.4375,-0.25,-0.03857422,0.01513672,0.9672852,0.08740234,-0.109375,-0.3125
118,1.125,0.8125,0.0625,-0.06591797,0.007324219,0.9829102,0.08740234,-0.109375,-0.3125
120,0.9375,0.3125,-0.5625,-0.03466797,0.01123047,0.9672852,0.09326172,-0.1083984,-0.3178711
121,0.9375,0.8125,-0.625,-0.04638672,0.01123047,0.9868164,0.09326172,-0.1083984,-0.3178711
123,0.75,0.5625,-0.375,-0.03076172,0.007324219,0.9868164,0.09326172,-0.1083984,-0.3178711
124,1.5,1.375,-0.4375,-0.05029297,0.01123047,0.9829102,0.09326172,-0.1083984,-0.3178711
126,1.3125,0.8125,-0.1875,-0.03076172,0.01513672,0.9555664,0.09082031,-0.1186523,-0.3125
127,0.25,0.9375,-0.125,-0.04638672,0.01123047,0.9750977,0.09082031,-0.1186523,-0.3125
129,0.4375,0.5,-0.1875,-0.05029297,0.01123047,0.9829102,0.09082031,-0.1186523,-0.3125
130,0.75,0.5,-0.6875,-0.06201172,0.03466797,0.9555664,0.09082031,-0.1025391,-0.3139648
132,0.9375,1.25,-1.25,-0.03466797,0.01513672,0.9750977,0.09082031,-0.1025391,-0.3139648
133,0.75,0.1875,-0.875,-0.04638672,0.003417969,0.9516602,0.09082031,-0.1025391,-0.3139648
135,0.6875,0.375,-0.6875,-0.02685547,0.003417969,0.9985352,0.08984375,-0.1152344,-0.3178711
136,0.3125,0.3125,-1.1875,-0.04638672,0.03466797,0.9907227,0.08984375,-0.1152344,-0.3178711
138,0.625,0.5625,-0.875,-0.05419922,0.01513672,0.9633789,0.08984375,-0.1152344,-0.3178711
139,0.6875,0.5,-0.5,-0.03076172,0.007324219,0.9633789,0.08984375,-0.1152344,-0.3178711
141,0.0625,-0.125,-0.75,-0.04248047,0,0.9711914,0.08740234,-0.1000977,-0.3168945
142,0.375,-0.3125,-0.375,-0.05029297,0.007324219,0.9868164,0.08740234,-0.1000977,-0.3168945
144,0.4375,0.0625,-0.4375,-0.05419922,0,0.9829102,0.08740234,-0.1000977,-0.3168945
145,0.6875,0.125,-1,-0.03466797,0.01123047,0.9516602,0.08837891,-0.112793,-0.3081055
147,0.4375,0.3125,0.0625,-0.04638672,-0.003417969,0.9829102,0.08837891,-0.112793,-0.3081055
148,0.25,0.0625,-0.9375,-0.05029297,0,0.9711914,0.08837891,-0.112793,-0.3081055
150,0.25,-0.1875,-0.5,-0.04248047,0.01123047,0.9868164,0.08398438,-0.1142578,-0.3125
151,0.125,-0.1875,-0.625,-0.05029297,-0.007324219,0.9829102,0.08398438,-0.1142578,-0.3125
153,-0.125,0,-0.6875,-0.02685547,-0.007324219,0.9711914,0.08398438,-0.1142578,-0.3125
154,-0.5625,0.0625,-0.4375,-0.03857422,0.01513672,0.9672852,0.08398438,-0.1142578,-0.3125
156,0.4375,-0.1875,-0.8125,-0.01513672,0.01123047,0.9477539,0.08398438,-0.1142578,-0.3125
157,-0.1875,0,-0.75,-0.03857422,0.01513672,0.9868164,0.08398438,-0.1142578,-0.3125
159,0.0625,0.3125,-0.4375,-0.04248047,-0.007324219,0.9829102,0.08398438,-0.1142578,-0.3125
160,0.9375,0.5,-0.75,-0.05029297,0.003417969,0.9829102,0.09082031,-0.112793,-0.3110352
162,1.1875,0.625,-0.5625,-0.02685547,0,0.9555664,0.09082031,-0.112793,-0.3110352
163,1.0625,0.875,-0.9375,-0.03076172,0,0.9477539,0.09082031,-0.112793,-0.3110352
165,0.8125,1.0625,-0.5,-0.05810547,0,0.9829102,0.09179688,-0.112793,-0.3168945
166,0.875,1.0625,-0.8125,-0.03076172,-0.01513672,0.9711914,0.09179688,-0.112793,-0.3168945
168,0.375,0.75,-1.125,-0.04248047,0.01513672,0.9633789,0.09179688,-0.112793,-0.3168945
169,0.75,0.9375,-0.625,-0.05029297,0.01123047,0.9672852,0.09179688,-0.112793,-0.3168945
171,0.8125,1.25,-0.125,-0.05029297,0.01513672,0.9672852,0.09179688,-0.112793,-0.3168945
172,0.6875,0.9375,-0.9375,-0.05810547,0.01513672,0.9868164,0.09179688,-0.112793,-0.3168945
174,0.0625,1,-0.6875,-0.04248047,0.01123047,0.9868164,0.09179688,-0.112793,-0.3168945
175,0.4375,0.375,-0.8125,-0.06201172,0.02685547,0.9868164,0.08740234,-0.1118164,-0.3168945
177,0.1875,0.5,-0.3125,-0.06201172,0,0.9672852,0.08740234,-0.1118164,-0.3168945
178,0.4375,0.25,0.0625,-0.07373047,0.01123047,0.9907227,0.08740234,-0.1118164,-0.3168945
180,-0.625,-0.0625,-0.25,-0.05029297,0.007324219,0.9633789,0.08837891,-0.105957,-0.3110352
181,-0.0625,0,-0.3125,-0.04638672,0.007324219,0.9477539,0.08837891,-0.105957,-0.3110352
183,0,0,-0.4375,-0.04638672,0.003417969,0.9829102,0.08837891,-0.105957,-0.3110352
184,0.875,0.1875,-0.3125,-0.05029297,0.01513672,0.9711914,0.08740234,-0.1142578,-0.3125
186,0.1875,-0.0625,-0.125,-0.05029297,0.01123047,0.9555664,0.08740234,-0.1142578,-0.3125
187,0,0.375,-0.3125,-0.05419922,0.02685547,0.9711914,0.08740234,-0.1142578,-0.3125
189,0.375,0.625,-0.3125,-0.03466797,0.01123047,0.9868164,0.08740234,-0.1142578,-0.3125
190,0.375,-0.5625,-0.25,-0.04638672,0.01123047,0.9868164,0.08984375,-0.1142578,-0.3081055
192,0.0625,0.1875,-0.6875,-0.03857422,0.007324219,0.9946289,0.08984375,-0.1142578,-0.3081055
193,0.125,-0.5,-0.6875,-0.04248047,0.007324219,0.9829102,0.08984375,-0.1142578,-0.3081055
195,0.1875,-0.5625,-0.75,-0.04248047,-0.007324219,0.9711914,0.09082031,-0.1118164,-0.3027344
197,-0.25,-0.25,-0.625,-0.05029297,0.01904297,0.9907227,0.09082031,-0.1118164,-0.3027344
199,-0.125,-0.75,0,-0.03857422,0.01123047,0.9790039,0.09082031,-0.1118164,-0.3027344
200,-0.125,-0.625,-0.25,-0.04638672,0.01123047,0.9829102,0.0859375,-0.1142578,-0.3222656
202,-0.375,-0.625,-0.3125,-0.03857422,0.007324219,0.9790039,0.0859375,-0.1142578,-0.3222656
203,-0.125,-1.3125,-0.625,-0.04638672,0.01513672,0.9555664,0.0859375,-0.1142578,-0.3222656
205,0.0625,-1.125,-0.1875,-0.04248047,0.03076172,0.9711914,0.0859375,-0.1142578,-0.3222656
206,-0.5,-0.625,-0.3125,-0.03857422,0.01513672,0.9321289,0.09082031,-0.1069336,-0.3139648
208,0.0625,-0.6875,-0.4375,-0.03466797,0.01904297,0.9711914,0.09082031,-0.1069336,-0.3139648
209,0,-0.625,-0.8125,-0.03466797,0.01513672,0.9555664,0.09082031,-0.1069336,-0.3139648
211,0.3125,-0.125,-0.5625,-0.03857422,0.01123047,0.9790039,0.08251953,-0.109375,-0.3095703
212,0.6875,-0.375,-0.5625,-0.03076172,0.01513672,0.9672852,0.08251953,-0.109375,-0.3095703
214,0.625,0.125,-0.6875,-0.03466797,0.01513672,0.9672852,0.08251953,-0.109375,-0.3095703
215,0.6875,-0.125,-0.875,-0.03076172,0.02685547,0.9672852,0.09423828,-0.112793,-0.3095703
217,0.5625,-0.375,-0.6875,-0.03857422,0.01513672,0.9555664,0.09423828,-0.112793,-0.3095703
218,0.9375,-0.75,-1,-0.02685547,0.01513672,0.9672852,0.09423828,-0.112793,-0.3095703
220,0.75,-0.0625,-1.0625,-0.02294922,0.01513672,0.9672852,0.09423828,-0.112793,-0.3095703
221,1.25,-0.375,-0.9375,-0.03857422,0.007324219,0.9633789,0.09423828,-0.112793,-0.3095703
223,1.0625,0.0625,-1.3125,-0.03466797,0.04248047,0.9711914,0.09423828,-0.112793,-0.3095703
224,1.1875,-0.625,-1.3125,-0.02685547,0.007324219,0.9672852,0.09423828,-0.112793,-0.3095703
226,0.6875,0,-1.5625,-0.05419922,0.02294922,0.9829102,0.09423828,-0.1118164,-0.3178711
227,1.3125,-0.0625,-1,-0.04248047,0.01123047,0.9907227,0.09423828,-0.1118164,-0.3178711
229,1.25,-0.8125,-1.375,-0.05419922,0.007324219,0.9750977,0.09423828,-0.1118164,-0.3178711
230,1.0625,0,-0.9375,-0.03466797,0.01123047,0.9711914,0.08740234,-0.1083984,-0.3193359
232,1.5,-0.4375,-0.875,-0.04638672,-0.007324219,0.9711914,0.08740234,-0.1083984,-0.3193359
233,1.3125,0.3125,-0.5,-0.05029297,-0.003417969,0.9672852,0.08740234,-0.1083984,-0.3193359
235,1.3125,-0.1875,-1,-0.04638672,0.01123047,0.9829102,0.08740234,-0.1083984,-0.3193359
236,1.25,-0.3125,-0.9375,-0.04248047,0.02685547,0.9985352,0.08740234,-0.1083984,-0.3193359
238,1,-0.1875,-0.6875,-0.05029297,0.01513672,0.9750977,0.08740234,-0.1083984,-0.3193359
239,0.625,-0.4375,-0.5625,-0.03857422,0.007324219,0.9711914,0.08740234,-0.1083984,-0.3193359
241,0.375,-0.875,-0.6875,-0.05810547,-0.003417969,0.9829102,0.08984375,-0.1142578,-0.3095703
242,0.5,-1.0625,-0.8125,-0.03857422,0.007324219,0.9672852,0.08984375,-0.1142578,-0.3095703
244,0.875,-0.25,-0.75,-0.05029297,0,0.9672852,0.08984375,-0.1142578,-0.3095703
245,0.5,-0.375,-0.1875,-0.05029297,0.03466797,0.9477539,0.09667969,-0.1176758,-0.3110352
247,0.3125,-0.5625,-0.5,-0.03857422,0.01904297,0.9829102,0.09667969,-0.1176758,-0.3110352
248,0.9375,-0.5625,-0.4375,-0.04638672,0.01513672,0.9711914,0.09667969,-0.1176758,-0.3110352
250,0.4375,-0.3125,-0.6875,-0.05810547,0.01513672,0.9946289,0.09521484,-0.109375,-0.3222656
251,0.6875,-0.4375,-0.8125,-0.03076172,0.01513672,0.9946289,0.09521484,-0.109375,-0.3222656
253,1,-0.1875,-0.25,-0.05029297,0.02685547,0.9868164,0.09521484,-0.109375,-0.3222656
254,0.375,-0.3125,-0.8125,-0.04638672,0.01513672,0.9829102,0.09521484,-0.109375,-0.3222656
256,0.4375,-0.125,-0.625,-0.03466797,0.01123047,0.9555664,0.08984375,-0.105957,-0.3125
257,0.1875,-0.875,-0.625,-0.02685547,0.01513672,0.9750977,0.08984375,-0.105957,-0.3125
259,0.4375,0.0625,-0.6875,-0.03076172,0.03076172,0.9868164,0.08984375,-0.105957,-0.3125
260,-0.4375,-1.0625,-0.625,-0.04248047,0.01904297,0.9946289,0.08837891,-0.1118164,-0.3041992
262,0.25,0.125,-0.5625,-0.03857422,0,0.9750977,0.08837891,-0.1118164,-0.3041992
263,-0.3125,0.0625,-0.25,-0.05810547,0.01513672,0.9672852,0.08837891,-0.1118164,-0.3041992
265,0.125,-1.1875,-0.1875,-0.04638672,0.007324219,0.9711914,0.1000977,-0.1118164,-0.3154297
266,-0.125,-0.375,-0.5625,-0.05029297,-0.007324219,0.9868164,0.1000977,-0.1118164,-0.3154297
268,-0.75,-0.8125,-0.125,-0.05029297,0.01513672,0.9555664,0.1000977,-0.1118164,-0.3154297
269,-0.3125,-0.3125,-0.75,-0.05810547,0.01123047,0.9633789,0.1000977,-0.1118164,-0.3154297
271,-0.125,-0.3125,0.0625,-0.03076172,0.007324219,0.9555664,0.08837891,-0.1176758,-0.3154297
272,-0.5,0.1875,-0.3125,-0.01904297,0.02294922,0.9829102,0.08837891,-0.1176758,-0.3154297
274,-0.875,-0.6875,-0.0625,-0.04638672,0.01123047,0.9633789,0.08837891,-0.1176758,-0.3154297
275,-0.4375,0,-0.3125,-0.04248047,0.01513672,0.9555664,0.09179688,-0.1083984,-0.3208008
277,-0.5625,0.0625,-0.1875,-0.03857422,0.007324219,0.9750977,0.09179688,-0.1083984,-0.3208008
278,-0.25,0.25,0,-0.04638672,0.01513672,0.9594727,0.09179688,-0.1083984,-0.3208008
280,0,-0.1875,-0.375,-0.05029297,0.003417969,0.9829102,0.08984375,-0.112793,-0.3139648
281,-0.9375,0.0625,-0.1875,-0.02685547,0.02685547,0.9829102,0.08984375,-0.112793,-0.3139648
283,-0.8125,-0.125,-0.125,-0.03857422,0.01904297,0.9711914,0.08984375,-0.112793,-0.3139648
284,-0.6875,-0.125,-0.625,-0.05419922,0.01513672,0.9946289,0.08984375,-0.112793,-0.3139648
286,-1.0625,-0.375,0,-0.04248047,0.01513672,0.9555664,0.08984375,-0.112793,-0.3139648
287,-1.0625,-0.5,-0.375,-0.03857422,0,0.9672852,0.08984375,-0.112793,-0.3139648
289,-1.125,-0.75,-0.5,-0.02294922,0.007324219,0.9594727,0.08984375,-0.112793,-0.3139648
290,-0.75,-0.3125,0,-0.04638672,-0.007324219,0.9594727,0.09423828,-0.1118164,-0.3081055
292,-0.3125,-0.6875,-0.1875,-0.02685547,0.01513672,0.9829102,0.09423828,-0.1118164,-0.3081055
294,0,-1.0625,-0.375,-0.05419922,0.01123047,0.9829102,0.09423828,-0.1118164,-0.3081055
296,-0.25,-0.6875,-0.625,-0.04248047,-0.003417969,0.9946289,0.08984375,-0.1069336,-0.3095703
297,-0.5,-0.5,-0.625,-0.03857422,0.01123047,0.9829102,0.08984375,-0.1069336,-0.3095703
299,0,-0.4375,-0.5625,-0.02294922,0,0.9672852,0.08984375,-0.1069336,-0.3095703
300,-0.125,-0.125,-0.3125,-0.05419922,0.01513672,0.9829102,0.08984375,-0.1069336,-0.3095703
302,0.0625,-0.6875,-1,-0.03466797,0.01123047,0.9711914,0.08984375,-0.1069336,-0.3095703
303,0,0,-0.375,-0.02294922,0,0.9829102,0.08984375,-0.1069336,-0.3095703
305,0.0625,-0.5,-0.375,-0.05419922,0.007324219,0.9750977,0.08984375,-0.1069336,-0.3095703
306,-0.1875,0.5,-0.125,-0.03857422,0.003417969,0.9750977,0.09179688,-0.112793,-0.3139648
308,-0.125,0.125,0.0625,-0.04638672,0.01513672,0.9438477,0.09179688,-0.112793,-0.3139648
309,0.0625,0,-0.8125,-0.02294922,0.01513672,0.9672852,0.09179688,-0.112793,-0.3139648
311,-0.1875,-0.125,-0.5625,-0.04638672,0,0.9750977,0.08984375,-0.112793,-0.3110352
312,-0.25,0,-0.3125,-0.04638672,0.007324219,0.9868164,0.08984375,-0.112793,-0.3110352
314,0.3125,-0.5,-0.375,-0.04638672,0.007324219,0.9790039,0.08984375,-0.112793,-0.3110352
315,0.125,-0.125,0,-0.03076172,0,0.9633789,0.09082031,-0.112793,-0.3125
317,-0.1875,-0.25,-0.625,-0.03857422,-0.007324219,0.9829102,0.09082031,-0.112793,-0.3125
318,-0.3125,-0.5,-0.125,-0.01904297,0,0.9829102,0.09082031,-0.112793,-0.3125
320,0,-0.5,0.0625,-0.06591797,0.003417969,0.9711914,0.09082031,-0.112793,-0.3125
321,-0.5625,0,0.1875,-0.04248047,0.01123047,0.9672852,0.08251953,-0.1152344,-0.3178711
323,-0.3125,-0.6875,0,-0.05810547,0.007324219,0.9829102,0.08251953,-0.1152344,-0.3178711
324,0,-1,-0.5,-0.03466797,0.01123047,0.9711914,0.08251953,-0.1152344,-0.3178711
326,-0.375,-1.125,-0.0625,-0.03857422,0.01513672,0.9829102,0.08984375,-0.1118164,-0.3193359
327,-0.5,-0.8125,-0.4375,-0.04248047,0.01123047,0.9829102,0.08984375,-0.1118164,-0.3193359
329,-0.75,-0.8125,-0.125,-0.04638672,0.03076172,0.9829102,0.08984375,-0.1118164,-0.3193359
330,-0.3125,-1.125,-0.125,-0.05419922,0.007324219,0.9516602,0.08837891,-0.1118164,-0.3154297
332,-0.6875,-0.3125,-0.3125,-0.05810547,-0.01904297,0.9672852,0.08837891,-0.1118164,-0.3154297
333,-0.375,-1.5625,-0.1875,-0.03857422,0.003417969,0.9829102,0.08837891,-0.1118164,-0.3154297
335,-0.1875,-0.875,-0.0625,-0.04638672,0.01123047,0.9477539,0.08837891,-0.1118164,-0.3154297
336,0.25,-1.25,-0.5,-0.01513672,0.01123047,0.9829102,0.09082031,-0.1118164,-0.3125
338,-0.8125,-0.9375,-0.0625,-0.03857422,0.01123047,0.9829102,0.09082031,-0.1118164,-0.3125
339,-0.4375,-0.75,0,-0.05810547,0,0.9711914,0.09082031,-0.1118164,-0.3125
341,-0.375,-1,-0.1875,-0.04248047,0.007324219,0.9633789,0.09082031,-0.112793,-0.3071289
342,-0.375,-1.375,-0.0625,-0.03857422,0.02294922,0.9946289,0.09082031,-0.112793,-0.3071289
344,-0.375,-0.9375,0.25,-0.04248047,0.007324219,0.9868164,0.09082031,-0.112793,-0.3071289
345,-0.5,-1.125,-0.5625,-0.04248047,0.01513672,0.9829102,0.09667969,-0.1142578,-0.3125
347,-0.875,-1.625,-0.1875,-0.03857422,-0.003417969,0.9594727,0.09667969,-0.1142578,-0.3125
348,-0.8125,-1.25,0.0625,-0.01513672,0,0.9711914,0.09667969,-0.1142578,-0.3125
350,-0.8125,-1.4375,0,-0.03466797,-0.003417969,0.9829102,0.09667969,-0.1142578,-0.3125
351,-0.875,-1.625,0.0625,-0.05029297,0.03466797,0.9829102,0.09667969,-0.1142578,-0.3125
353,-0.3125,-2.0625,0.0625,-0.01513672,0,0.9672852,0.09667969,-0.1142578,-0.3125
354,-1.125,-1.9375,0.1875,-0.04638672,0,0.9711914,0.09667969,-0.1142578,-0.3125
356,-1.3125,-1.375,0.4375,-0.03076172,0.003417969,0.9711914,0.09423828,-0.1035156,-0.3168945
357,-1.1875,-1.8125,0.25,-0.04638672,0.007324219,0.9829102,0.09423828,-0.1035156,-0.3168945
359,-0.875,-1.75,0.0625,-0.04248047,0.01123047,0.9672852,0.09423828,-0.1035156,-0.3168945
360,-1.3125,-2,0.5,-0.03076172,0.01513672,0.9555664,0.08984375,-0.1142578,-0.3193359
362,-1.125,-1.4375,0.3125,-0.04638672,0.003417969,0.9711914,0.08984375,-0.1142578,-0.3193359
363,-0.75,-1.6875,0.4375,-0.03466797,-0.007324219,0.9672852,0.08984375,-0.1142578,-0.3193359
365,-0.875,-2.3125,0.6875,-0.04638672,0.003417969,0.9711914,0.08984375,-0.1142578,-0.3193359
366,-1.4375,-2.5,0.4375,-0.01123047,-0.003417969,0.9711914,0.08984375,-0.1142578,-0.3193359
368,-0.6875,-1.625,0.5,-0.02685547,0.003417969,0.9555664,0.08984375,-0.1142578,-0.3193359
369,-1.5,-2.25,0.4375,-0.02685547,0.01123047,0.9711914,0.08984375,-0.1142578,-0.3193359
371,0,-1.1875,0.5,-0.01513672,0.007324219,0.9790039,0.09521484,-0.1118164,-0.3168945
372,-0.75,-2.0625,0.375,-0.01123047,0.02685547,0.9829102,0.09521484,-0.1118164,-0.3168945
374,-0.3125,-1.4375,0.375,-0.04638672,0.01123047,0.9829102,0.09521484,-0.1118164,-0.3168945
375,-0.6875,-0.375,0.1875,-0.02294922,0.01123047,0.9711914,0.09179688,-0.1083984,-0.3095703
377,0,-1,0,-0.02685547,0.007324219,0.9555664,0.09179688,-0.1083984,-0.3095703
378,-0.125,-0.9375,-0.125,-0.02685547,0.01513672,0.9672852,0.09179688,-0.1083984,-0.3095703
380,-0.3125,-0.125,-0.125,-0.03076172,0.003417969,0.9868164,0.09082031,-0.1069336,-0.3193359
381,0.0625,-0.0625,0.0625,-0.01513672,-0.007324219,0.9594727,0.09082031,-0.1069336,-0.3193359
383,0.1875,-0.4375,-0.25,-0.01513672,0.007324219,0.9829102,0.09082031,-0.1069336,-0.3193359
384,0.5,-0.375,-0.25,-0.03076172,0.007324219,0.9750977,0.09082031,-0.1069336,-0.3193359
386,0,-0.1875,-0.1875,-0.03466797,0.01513672,0.9711914,0.08740234,-0.1083984,-0.3125
387,0.625,0.625,-0.25,-0.03076172,0.01123047,0.9750977,0.08740234,-0.1083984,-0.3125
389,0.3125,-0.125,-0.4375,-0.03466797,0.01513672,0.9711914,0.08740234,-0.1083984,-0.3125
392,0.3125,-0.1875,-0.125,-0.01513672,0,0.9829102,0.09326172,-0.1069336,-0.3125
394,0.375,0.375,0,-0.03466797,-0.003417969,0.9711914,0.09326172,-0.1069336,-0.3125
395,0.625,-0.625,-0.25,-0.05810547,0.01123047,0.9633789,0.09326172,-0.1069336,-0.3125
397,0.5,0,-0.75,-0.02685547,0.01123047,0.9829102,0.09082031,-0.109375,-0.3081055
398,0.625,-0.625,0.0625,-0.04638672,-0.003417969,0.9829102,0.09082031,-0.109375,-0.3081055
400,0.3125,-0.0625,-0.5625,-0.03466797,-0.003417969,0.9829102,0.09082031,-0.109375,-0.3081055
401,0,-0.5,-0.25,-0.04638672,0.007324219,0.9672852,0.09082031,-0.109375,-0.3081055
403,0.8125,0.0625,0,-0.05810547,0.01123047,0.9633789,0.09082031,-0.1186523,-0.3193359
404,0.5625,0.0625,-0.625,-0.05029297,-0.007324219,0.9829102,0.09082031,-0.1186523,-0.3193359
406,0.75,-0.5,-0.0625,-0.03466797,0.007324219,0.9985352,0.09082031,-0.1186523,-0.3193359
407,-0.125,-0.0625,-0.1875,-0.01123047,0.01513672,0.9829102,0.0859375,-0.1118164,-0.3178711
409,-0.25,-0.5,-0.125,-0.04248047,0.007324219,0.9633789,0.0859375,-0.1118164,-0.3178711
410,0,-0.125,-0.3125,-0.02685547,0.02294922,0.9829102,0.0859375,-0.1118164,-0.3178711
412,0,-0.4375,-0.375,-0.05029297,0.01513672,0.9868164,0.09082031,-0.1083984,-0.3081055
413,0.3125,-0.9375,0.3125,-0.02685547,0.01123047,0.9633789,0.09082031,-0.1083984,-0.3081055
415,0.3125,-0.8125,0,-0.05029297,0.02685547,0.9594727,0.09082031,-0.1083984,-0.3081055
416,0,-0.125,0,-0.04248047,0.02685547,0.9907227,0.09082031,-0.1083984,-0.3081055
418,-0.5625,-0.75,-0.4375,-0.01123047,-0.01904297,0.9672852,0.09082031,-0.1083984,-0.3081055
419,0,0,0,-0.04248047,0.01513672,0.9672852,0.09082031,-0.1083984,-0.3081055
421,-0.1875,-0.6875,-0.1875,-0.03076172,0.01513672,0.9868164,0.09082031,-0.1083984,-0.3081055
422,-0.1875,-0.5625,0.1875,-0.03076172,-0.003417969,0.9829102,0.08496094,-0.1108398,-0.3095703
424,-0.125,-0.3125,0.0625,-0.03857422,-0.003417969,0.9829102,0.08496094,-0.1108398,-0.3095703
425,-0.5,-0.875,-0.1875,-0.05029297,0,0.9829102,0.08496094,-0.1108398,-0.3095703
427,-0.1875,-0.6875,0,-0.02685547,0.01513672,0.9711914,0.08740234,-0.109375,-0.3208008
428,0.0625,-0.5625,-0.375,-0.03076172,0.01123047,0.9477539,0.08740234,-0.109375,-0.3208008
430,-0.375,-0.1875,-0.0625,-0.01513672,0.007324219,0.9711914,0.08740234,-0.109375,-0.3208008
431,-0.25,-0.875,0.5625,-0.02685547,0.007324219,0.9868164,0.08740234,-0.109375,-0.3208008
433,-0.125,-0.3125,-0.3125,-0.04248047,0.003417969,0.9868164,0.08740234,-0.109375,-0.3208008
434,-0.25,0,0.125,-0.03857422,0.003417969,0.9594727,0.08740234,-0.109375,-0.3208008
436,0.125,0,-0.5625,-0.03857422,-0.003417969,0.9750977,0.08740234,-0.109375,-0.3208008
437,0.3125,0,-0.5,-0.01904297,-0.01123047,0.9633789,0.0859375,-0.1176758,-0.3125
439,-0.1875,-0.3125,0,-0.03076172,0,0.9633789,0.0859375,-0.1176758,-0.3125
440,0.125,0.25,-0.5,-0.01513672,-0.01123047,0.9633789,0.0859375,-0.1176758,-0.3125
442,0,0.5625,-0.1875,-0.03857422,0,0.9594727,0.09667969,-0.1108398,-0.3154297
443,0.3125,0.0625,-0.3125,-0.04248047,0.01513672,0.9868164,0.09667969,-0.1108398,-0.3154297
445,0.625,0.8125,-0.1875,-0.05029297,0,0.9672852,0.09667969,-0.1108398,-0.3154297
446,0.4375,-0.3125,-0.5,-0.03466797,0,0.9555664,0.08398438,-0.1118164,-0.3139648
448,0.125,0.3125,-0.625,-0.02685547,0.01513672,0.9829102,0.08398438,-0.1118164,-0.3139648
449,0.1875,0.3125,-0.3125,-0.05810547,0.003417969,0.9829102,0.08398438,-0.1118164,-0.3139648
451,0,0,-0.5625,-0.02685547,0.01123047,0.9438477,0.08398438,-0.1118164,-0.3139648
452,0.625,0.0625,-0.625,-0.03466797,0,0.9672852,0.08984375,-0.1142578,-0.3208008
454,0.3125,0.1875,-0.375,-0.03466797,0.01904297,0.9829102,0.08984375,-0.1142578,-0.3208008
455,0.25,0.125,-0.5,-0.03076172,-0.003417969,0.9555664,0.08984375,-0.1142578,-0.3208008
457,0.1875,0.4375,-0.3125,-0.01513672,0.01513672,0.9829102,0.09326172,-0.1108398,-0.3095703
458,-0.375,0.625,-0.375,-0.04248047,0.01904297,0.9868164,0.09326172,-0.1108398,-0.3095703
460,0,-0.25,-0.4375,-0.03466797,0.003417969,0.9516602,0.09326172,-0.1108398,-0.3095703
461,0.0625,0.1875,-0.4375,-0.04248047,0.01123047,0.9711914,0.09082031,-0.112793,-0.3168945
463,-0.125,-0.25,-0.375,-0.03466797,0.003417969,0.9594727,0.09082031,-0.112793,-0.3168945
464,0.25,-0.1875,-0.25,-0.05029297,0.003417969,0.9829102,0.09082031,-0.112793,-0.3168945
466,0.0625,-0.0625,-0.1875,-0.04248047,0.01904297,0.9750977,0.09082031,-0.112793,-0.3168945
467,0.125,-0.125,-0.25,-0.05029297,-0.01123047,0.9594727,0.08837891,-0.1142578,-0.3139648
469,0,-0.1875,-0.5625,-0.02685547,-0.003417969,0.9711914,0.08837891,-0.1142578,-0.3139648
470,0.375,0.3125,-0.5625,-0.03466797,0.01513672,0.9829102,0.08837891,-0.1142578,-0.3139648
472,0.8125,0.5,-1.125,-0.05029297,0.003417969,1.001953,0.09179688,-0.1108398,-0.3110352
473,0.375,-0.375,0.1875,-0.01513672,0.007324219,0.9829102,0.09179688,-0.1108398,-0.3110352
475,0,-0.1875,-0.1875,-0.03076172,-0.003417969,0.9594727,0.09179688,-0.1108398,-0.3110352
476,-0.0625,0.3125,-0.3125,-0.03857422,0.01123047,0.9750977,0.08740234,-0.1108398,-0.3110352
478,0.1875,-0.6875,-0.25,-0.03466797,0.003417969,0.9829102,0.08740234,-0.1108398,-0.3110352
479,-0.25,0.3125,-0.5,-0.03857422,0.01123047,0.9555664,0.08740234,-0.1108398,-0.3110352
481,0,0.5625,0,-0.03076172,0,0.9633789,0.08740234,-0.1108398,-0.3110352
482,0.3125,0.1875,-0.4375,-0.03857422,-0.003417969,0.9829102,0.08740234,-0.1108398,-0.3193359
484,0.6875,0.125,-0.3125,-0.03076172,0.01123047,0.9829102,0.08740234,-0.1108398,-0.3193359
485,0.25,0,-0.5625,-0.02294922,0,0.9594727,0.08740234,-0.1108398,-0.3193359
487,0.3125,0,-0.5,-0.02294922,0.003417969,0.9750977,0.08740234,-0.1083984,-0.3154297
489,0.5,-0.4375,-0.4375,-0.04248047,0.01123047,0.9555664,0.08740234,-0.1083984,-0.3154297
491,0.375,-0.375,0.1875,-0.03466797,0.003417969,0.9711914,0.08740234,-0.1083984,-0.3154297
492,0.5625,0.25,-0.25,-0.04248047,0.003417969,0.9907227,0.08740234,-0.1152344,-0.3178711
494,0.25,0.3125,-0.1875,-0.04248047,0,0.9829102,0.08740234,-0.1152344,-0.3178711
495,0,0.125,-0.75,-0.03466797,0,0.9672852,0.08740234,-0.1152344,-0.3178711
497,0.25,0,-0.1875,-0.03466797,0,0.9868164,0.08740234,-0.1152344,-0.3178711
498,0.0625,-0.0625,-0.875,-0.03857422,0.01513672,0.9868164,0.08740234,-0.1152344,-0.3178711
500,0.375,0.0625,-0.25,-0.01513672,0.01123047,0.9790039,0.08740234,-0.1152344,-0.3178711
501,0.0625,0,-0.1875,-0.04638672,0,0.9907227,0.08740234,-0.1152344,-0.3178711
503,-0.0625,-0.3125,0,-0.03466797,0,0.9868164,0.08740234,-0.1083984,-0.3095703
504,-0.125,-0.375,-0.5625,-0.03466797,0,0.9829102,0.08740234,-0.1083984,-0.3095703
506,0.375,-0.125,-0.1875,-0.02294922,0.01513672,0.9907227,0.08740234,-0.1083984,-0.3095703
507,0.125,0.125,-0.625,-0.04638672,0.01123047,0.9829102,0.08837891,-0.1162109,-0.3095703
509,0,-0.0625,-0.5,-0.05029297,0,0.9633789,0.08837891,-0.1162109,-0.3095703
510,-0.25,0.125,-0.8125,-0.02685547,0,0.9829102,0.08837891,-0.1162109,-0.3095703
512,-0.125,0,-0.75,-0.03076172,0.007324219,0.9829102,0.08837891,-0.1152344,-0.3139648
513,-0.1875,-0.375,-0.75,-0.04638672,0.01123047,0.9829102,0.08837891,-0.1152344,-0.3139648
515,0.0625,-0.25,-0.1875,-0.02294922,0.003417969,0.9711914,0.08837891,-0.1152344,-0.3139648
516,0.0625,0.375,-0.5,-0.05810547,0.007324219,0.9672852,0.08837891,-0.1152344,-0.3139648
518,-0.25,0.125,-0.25,-0.03857422,0,0.9477539,0.0859375,-0.109375,-0.3154297
519,-0.0625,-0.125,-0.4375,-0.03076172,0,0.9633789,0.0859375,-0.109375,-0.3154297
521,0.1875,-0.5625,-0.3125,-0.03466797,0.01123047,0.9594727,0.0859375,-0.109375,-0.3154297
522,0,-0.3125,-0.5625,-0.03857422,0,0.9672852,0.08837891,-0.1176758,-0.3154297
524,0,-0.5,-0.375,-0.03076172,-0.007324219,0.9829102,0.08837891,-0.1176758,-0.3154297
525,0.0625,-1,-0.4375,-0.03076172,0.01123047,0.9829102,0.08837891,-0.1176758,-0.3154297
527,0.0625,-0.4375,-0.3125,-0.03466797,0.01513672,0.9829102,0.08740234,-0.1118164,-0.3208008
528,0.0625,0,0.0625,-0.03076172,0.003417969,0.9750977,0.08740234,-0.1118164,-0.3208008
530,0,-0.4375,-0.0625,-0.04248047,0.01513672,0.9555664,0.08740234,-0.1118164,-0.3208008
531,0,-0.8125,0.1875,-0.04638672,0.01123047,0.9907227,0.08740234,-0.1118164,-0.3208008
533,-0.9375,-0.5625,-0.125,-0.03857422,0.007324219,0.9750977,0.09326172,-0.1069336,-0.3178711
534,-0.6875,-0.3125,-0.375,-0.04638672,0.01513672,0.9555664,0.09326172,-0.1069336,-0.3178711
536,0.1875,-0.4375,-0.125,-0.05029297,0.01513672,0.9750977,0.09326172,-0.1069336,-0.3178711
537,-0.1875,-0.625,-0.125,-0.03857422,0,0.9672852,0.08740234,-0.1069336,-0.3168945
539,-0.4375,0.25,-0.375,-0.01513672,0.003417969,0.9829102,0.08740234,-0.1069336,-0.3168945
540,0.25,-0.375,0,-0.04248047,0.003417969,0.9829102,0.08740234,-0.1069336,-0.3168945
542,0.25,-0.5625,-0.6875,-0.05419922,0,0.9672852,0.08740234,-0.1142578,-0.3208008
543,0.0625,-0.0625,0,-0.03857422,0.003417969,0.9868164,0.08740234,-0.1142578,-0.3208008
545,-0.0625,0.1875,0,-0.01123047,0.01123047,0.9633789,0.08740234,-0.1142578,-0.3208008
546,0.3125,-0.75,-0.875,-0.04248047,0.003417969,0.9907227,0.08740234,-0.1142578,-0.3208008
548,0,-0.75,-0.5625,-0.03076172,-0.003417969,0.9711914,0.08740234,-0.1142578,-0.3208008
549,0,-0.625,-0.5,-0.02685547,0.02685547,0.9555664,0.08740234,-0.1142578,-0.3208008
551,0.25,-0.0625,-0.0625,-0.03857422,0,0.9516602,0.08740234,-0.1142578,-0.3208008
552,0.0625,-0.5625,-0.5,-0.02294922,0.01513672,0.9750977,0.08496094,-0.1069336,-0.3154297
554,0.375,0,-0.5,-0.05029297,0,0.9633789,0.08496094,-0.1069336,-0.3154297
555,1,0.0625,-0.4375,-0.04248047,0.01513672,0.9829102,0.08496094,-0.1069336,-0.3154297
557,0.25,0.125,-0.8125,-0.04248047,0.01513672,0.9633789,0.08740234,-0.1142578,-0.3154297
558,0,-0.375,-0.1875,-0.03076172,0.01904297,0.9711914,0.08740234,-0.1142578,-0.3154297
560,0.125,-0.3125,-0.6875,-0.05029297,0.01123047,0.9672852,0.08740234,-0.1142578,-0.3154297
561,0.4375,-0.25,-0.5,-0.03466797,0.007324219,0.9711914,0.08740234,-0.1142578,-0.3154297
563,0.3125,-0.3125,-0.125,-0.02685547,0,0.9672852,0.08740234,-0.1142578,-0.3154297
564,0.125,-0.4375,-0.3125,-0.02685547,0,0.9672852,0.08740234,-0.1142578,-0.3154297
566,0.625,0,-0.5,-0.04248047,0.01123047,0.9399414,0.08740234,-0.1142578,-0.3154297
567,0.4375,0,-0.625,-0.03857422,-0.007324219,0.9829102,0.08740234,-0.1118164,-0.3081055
569,0.75,0.6875,-0.125,-0.02294922,0.003417969,0.9750977,0.08740234,-0.1118164,-0.3081055
570,0.375,-0.0625,-0.25,-0.03857422,0,0.9672852,0.08740234,-0.1118164,-0.3081055
572,0.4375,-0.0625,-0.25,-0.02294922,0.01123047,0.9907227,0.09082031,-0.1083984,-0.3178711
573,-0.0625,-0.0625,-0.125,-0.02685547,0.007324219,0.9672852,0.09082031,-0.1083984,-0.3178711
575,0.1875,0.3125,-0.375,-0.03076172,0.007324219,0.9594727,0.09082031,-0.1083984,-0.3178711
576,0.0625,0.125,0,-0.03466797,0.007324219,0.9829102,0.08837891,-0.1142578,-0.3125
578,-0.125,-0.3125,-0.1875,-0.03466797,0.007324219,0.9829102,0.08837891,-0.1142578,-0.3125
579,0,-0.375,-0.5,-0.03076172,0.01123047,0.9399414,0.08837891,-0.1142578,-0.3125
581,-0.25,-0.125,0.0625,-0.03466797,0.007324219,0.9633789,0.08837891,-0.1142578,-0.3125
582,-0.625,0,0.0625,-0.03857422,0.01513672,0.9868164,0.08740234,-0.1069336,-0.3168945
584,0.0625,-0.0625,-0.0625,-0.04638672,0.02294922,0.9672852,0.08740234,-0.1069336,-0.3168945
586,-0.6875,-0.375,-0.4375,-0.03857422,-0.007324219,0.9711914,0.08740234,-0.1069336,-0.3168945
588,-0.1875,0.0625,-0.4375,-0.05419922,0.01123047,0.9829102,0.09082031,-0.1083984,-0.3139648
589,0,-0.375,-0.125,-0.02685547,0.03076172,0.9829102,0.09082031,-0.1083984,-0.3139648
591,0,-0.25,-0.3125,-0.03076172,0.01513672,0.9829102,0.09082031,-0.1083984,-0.3139648
592,0,0.0625,0,-0.04248047,0,0.9946289,0.08837891,-0.1025391,-0.3208008
594,-0.5,0.1875,0,-0.04248047,0,0.9829102,0.08837891,-0.1025391,-0.3208008
595,-1.125,0,-0.125,-0.02685547,0.007324219,0.9672852,0.08837891,-0.1025391,-0.3208008
597,0,-0.5625,-0.25,-0.03857422,0,0.9829102,0.08837891,-0.1025391,-0.3208008
598,0,-0.375,-0.0625,-0.03076172,0.007324219,0.9868164,0.09521484,-0.1118164,-0.3095703
600,-0.1875,-0.5625,-0.3125,-0.02685547,0.003417969,0.9477539,0.09521484,-0.1118164,-0.3095703
601,-0.375,0.0625,-0.125,-0.03466797,0.003417969,0.9868164,0.09521484,-0.1118164,-0.3095703
603,0.125,-0.375,-0.0625,-0.03076172,0,0.9594727,0.08740234,-0.1142578,-0.3139648
604,-0.3125,-0.25,-0.3125,-0.03466797,0.003417969,0.9829102,0.08740234,-0.1142578,-0.3139648
606,-0.125,-0.375,-0.1875,-0.05419922,0,0.9750977,0.08740234,-0.1142578,-0.3139648
607,0,0,-0.375,-0.04248047,0.01123047,0.9594727,0.08740234,-0.112793,-0.3071289
609,0.25,0,0,-0.02685547,0.007324219,0.9790039,0.08740234,-0.112793,-0.3071289
610,0,0.125,-0.5625,-0.04248047,-0.007324219,0.9633789,0.08740234,-0.112793,-0.3071289
612,-0.125,-0.4375,-0.5,-0.03857422,0.007324219,0.9594727,0.08740234,-0.112793,-0.3071289
613,-0.3125,-0.3125,-0.5625,-0.03076172,0.01123047,0.9672852,0.08398438,-0.1108398,-0.3125
615,0.3125,0.0625,0,-0.03857422,-0.007324219,0.9868164,0.08398438,-0.1108398,-0.3125
616,0.1875,0.125,-0.3125,-0.03076172,-0.01123047,0.9790039,0.08398438,-0.1108398,-0.3125
618,0.6875,0,-0.25,-0.03076172,0.003417969,0.9829102,0.09082031,-0.1069336,-0.3178711
619,-0.25,-0.4375,-0.5625,-0.05029297,0.01123047,0.9750977,0.09082031,-0.1069336,-0.3178711
621,-0.3125,-0.375,-0.375,-0.05029297,0,0.9829102,0.09082031,-0.1069336,-0.3178711
622,-0.375,0.375,0.1875,-0.03076172,0.003417969,0.9633789,0.08496094,-0.1108398,-0.3139648
624,0.125,-0.5,-0.25,-0.05029297,0.007324219,0.9868164,0.08496094,-0.1108398,-0.3139648
625,0.0625,0,0,-0.04248047,-0.01513672,0.9985352,0.08496094,-0.1108398,-0.3139648
627,-0.125,-0.5625,0,-0.03857422,-0.003417969,0.9477539,0.08496094,-0.1108398,-0.3139648
628,-0.375,-0.3125,0.0625,-0.03466797,0.007324219,0.9868164,0.08496094,-0.1108398,-0.3139648
630,-0.1875,-0.25,-0.3125,-0.03466797,0.007324219,0.9594727,0.08496094,-0.1108398,-0.3139648
631,-0.125,-0.375,-0.0625,-0.02685547,0.01904297,0.9672852,0.08496094,-0.1108398,-0.3139648
633,-0.25,-0.625,-0.125,-0.02294922,0.01123047,0.9790039,0.09521484,-0.112793,-0.3208008
634,0.125,0.0625,0,-0.05419922,0.007324219,0.9711914,0.09521484,-0.112793,-0.3208008
636,-0.25,0,-0.5,-0.04638672,0.02294922,0.9750977,0.09521484,-0.112793,-0.3208008
637,-0.3125,-0.6875,-0.5625,-0.05029297,0,0.9711914,0.08984375,-0.112793,-0.3208008
639,-0.3125,-0.4375,-0.25,-0.03076172,0,0.9594727,0.08984375,-0.112793,-0.3208008
640,-0.25,-0.625,-0.3125,-0.02294922,0,0.9829102,0.08984375,-0.112793,-0.3208008
642,-0.125,-0.625,-0.3125,-0.03857422,0,0.9711914,0.08984375,-0.112793,-0.3208008
643,-0.6875,-0.3125,0.0625,-0.03857422,-0.003417969,0.9594727,0.08984375,-0.112793,-0.3208008
645,0.25,-0.375,-0.1875,-0.03857422,0.007324219,0.9829102,0.08984375,-0.112793,-0.3208008
646,-0.125,-0.875,0.0625,-0.04248047,0,0.9829102,0.08984375,-0.112793,-0.3208008
648,-0.25,-0.8125,-0.5625,-0.03857422,0,0.9672852,0.09082031,-0.1152344,-0.3095703
649,0.0625,0,-0.5625,-0.03857422,0.007324219,0.9555664,0.09082031,-0.1152344,-0.3095703
651,-0.5,0,-0.0625,-0.04248047,0.01123047,0.9946289,0.09082031,-0.1152344,-0.3095703
652,0.1875,0.375,-0.1875,-0.02685547,0.01904297,0.9829102,0.09667969,-0.112793,-0.3193359
654,0.1875,0,0.0625,-0.01513672,0.007324219,0.9829102,0.09667969,-0.112793,-0.3193359
655,0.4375,-0.4375,-0.125,-0.02685547,0,0.9790039,0.09667969,-0.112793,-0.3193359
657,0.1875,0.125,-0.0625,-0.02685547,-0.01513672,0.9477539,0.08740234,-0.1108398,-0.3178711
658,0.5,-0.375,-0.625,-0.02294922,-0.003417969,0.9829102,0.08740234,-0.1108398,-0.3178711
660,0.4375,-0.0625,-0.625,-0.03857422,0.01123047,0.9633789,0.08740234,-0.1108398,-0.3178711
661,0.625,0.3125,-0.1875,-0.03076172,0.01513672,0.9672852,0.08740234,-0.1108398,-0.3178711
663,0.5625,0.125,0.1875,-0.01513672,0.01123047,0.9555664,0.08984375,-0.1118164,-0.3168945
664,0.4375,0.4375,-0.375,-0.03857422,0.01904297,0.9829102,0.08984375,-0.1118164,-0.3168945
666,0.3125,0.3125,-0.75,-0.03466797,0,0.9711914,0.08984375,-0.1118164,-0.3168945
667,0.625,0,-0.5625,-0.02294922,0.01513672,0.9672852,0.08740234,-0.1083984,-0.3154297
669,0.9375,0.75,-0.375,-0.03857422,-0.007324219,0.9672852,0.08740234,-0.1083984,-0.3154297
670,0.3125,0,-0.4375,-0.04248047,0,0.9868164,0.08740234,-0.1083984,-0.3154297
672,0.375,0.0625,-0.375,-0.03076172,0.01123047,0.9633789,0.08740234,-0.112793,-0.3110352
673,0,0.1875,-0.4375,-0.03857422,0.01123047,0.9594727,0.08740234,-0.112793,-0.3110352
675,0.375,0.0625,-0.5625,-0.04248047,0,0.9829102,0.08740234,-0.112793,-0.3110352
676,0.625,0.0625,-0.5,-0.05029297,0.03076172,0.9829102,0.08740234,-0.112793,-0.3110352
678,0.1875,0.3125,-0.4375,-0.01513672,0.01904297,0.9438477,0.08740234,-0.112793,-0.3110352
679,0.3125,0.625,-0.75,-0.04248047,0.01123047,0.9594727,0.08740234,-0.112793,-0.3110352
681,0.375,0.375,0,-0.02685547,-0.01123047,0.9633789,0.08740234,-0.112793,-0.3110352
683,0.6875,0.0625,-0.0625,-0.03466797,0.01123047,0.9633789,0.08984375,-0.1108398,-0.3168945
685,-0.25,-0.1875,-0.5,-0.03076172,0.003417969,0.9868164,0.08984375,-0.1108398,-0.3168945
686,0.5625,0.0625,-0.1875,-0.03857422,0,0.9946289,0.08984375,-0.1108398,-0.3168945
688,0.4375,0.3125,0,-0.04248047,0.01123047,0.9633789,0.08984375,-0.1142578,-0.3081055
689,0.3125,-0.25,-0.0625,-0.02294922,0.01513672,0.9750977,0.08984375,-0.1142578,-0.3081055
691,-0.375,0,-0.4375,-0.01513672,-0.007324219,0.9829102,0.08984375,-0.1142578,-0.3081055
692,0,-0.5,0,-0.03076172,0.03076172,0.9829102,0.08984375,-0.1142578,-0.3081055
694,-0.0625,-0.4375,-0.5,-0.03466797,0.007324219,0.9907227,0.08984375,-0.1142578,-0.3081055
695,0.1875,0,-0.4375,-0.02685547,0.007324219,0.9750977,0.08984375,-0.1142578,-0.3081055
697,0.0625,-0.0625,-0.3125,-0.03076172,0.01123047,0.9594727,0.08984375,-0.1142578,-0.3081055
698,-0.0625,-0.0625,-0.25,-0.05029297,0.007324219,0.9829102,0.08154297,-0.1142578,-0.3125
700,-0.125,-0.5,-0.6875,-0.03466797,-0.02294922,0.9555664,0.08154297,-0.1142578,-0.3125
701,0.1875,-0.625,-0.625,-0.03857422,0.007324219,0.9633789,0.08154297,-0.1142578,-0.3125
703,-0.1875,0,-0.375,-0.03076172,0.02294922,0.9829102,0.08740234,-0.1152344,-0.3139648
704,0,0.25,-0.3125,-0.04248047,0.01123047,0.9633789,0.08740234,-0.1152344,-0.3139648
706,0,0,-0.4375,-0.04248047,-0.007324219,0.9829102,0.08740234,-0.1152344,-0.3139648
707,0,0.0625,0,-0.05029297,0.02685547,0.9633789,0.08398438,-0.1083984,-0.3095703
709,-0.3125,-0.25,-0.0625,-0.03076172,0,0.9750977,0.08398438,-0.1083984,-0.3095703
710,0.125,-0.3125,-0.0625,-0.01513672,0.007324219,0.9790039,0.08398438,-0.1083984,-0.3095703
712,0,0.3125,-0.375,-0.03076172,0.01513672,0.9672852,0.08398438,-0.1083984,-0.3095703
713,0,-0.25,-0.9375,-0.04248047,0.007324219,0.9750977,0.08984375,-0.1108398,-0.3139648
715,-0.5,0,-0.3125,-0.03076172,0.007324219,0.9790039,0.08984375,-0.1108398,-0.3139648
716,0.5,-0.6875,-0.5625,-0.04248047,0.007324219,0.9633789,0.08984375,-0.1108398,-0.3139648
718,0.125,-0.0625,-0.5,-0.03857422,0,0.9672852,0.0859375,-0.112793,-0.3154297
719,-0.0625,-0.25,-0.6875,-0.03076172,0.003417969,0.9594727,0.0859375,-0.112793,-0.3154297
721,0.625,0.0625,-0.125,-0.03076172,0.007324219,0.9750977,0.0859375,-0.112793,-0.3154297
722,0.1875,-0.375,-0.5,-0.03076172,0,0.9829102,0.0859375,-0.1118164,-0.3168945
724,0.625,0,-0.125,-0.03857422,0.003417969,0.9907227,0.0859375,-0.1118164,-0.3168945
725,0.4375,-0.0625,-0.625,-0.02685547,0.01123047,0.9438477,0.0859375,-0.1118164,-0.3168945
727,0,-0.3125,-0.3125,-0.01513672,-0.003417969,0.9868164,0.0859375,-0.1118164,-0.3168945
728,0.3125,-0.25,-0.25,-0.03857422,0,0.9750977,0.08984375,-0.1108398,-0.3125
730,0.1875,0.0625,-0.1875,-0.04638672,-0.007324219,0.9711914,0.08984375,-0.1108398,-0.3125
731,0.3125,0.25,-0.4375,-0.04248047,-0.003417969,0.9829102,0.08984375,-0.1108398,-0.3125
733,0.1875,-0.25,-0.6875,-0.03857422,0.01123047,0.9672852,0.09423828,-0.112793,-0.3178711
734,0,0,-0.1875,-0.04248047,0.007324219,0.9711914,0.09423828,-0.112793,-0.3178711
736,0,-0.1875,-0.5,-0.01513672,0.01123047,0.9711914,0.09423828,-0.112793,-0.3178711
737,-0.3125,-0.1875,0.0625,-0.03466797,-0.003417969,0.9672852,0.09179688,-0.1083984,-0.3193359
739,0.0625,0,-0.3125,-0.04248047,0.01513672,0.9672852,0.09179688,-0.1083984,-0.3193359
740,-0.5625,-0.25,-0.6875,-0.02294922,0.01513672,0.9711914,0.09179688,-0.1083984,-0.3193359
742,0.0625,-0.25,0,-0.03076172,0.01123047,0.9750977,0.09179688,-0.1083984,-0.3193359
743,0,0.0625,-0.1875,-0.01123047,0.007324219,0.9672852,0.09326172,-0.1142578,-0.3193359
745,0.1875,0.0625,-0.5625,-0.02685547,0.01123047,0.9829102,0.09326172,-0.1142578,-0.3193359
746,-0.25,-0.4375,-0.75,-0.03857422,0,0.9868164,0.09326172,-0.1142578,-0.3193359
748,1.0625,0,-0.3125,-0.04248047,0,0.9829102,0.08398438,-0.105957,-0.3154297
749,0.1875,0,-0.25,-0.04248047,0.007324219,0.9633789,0.08398438,-0.105957,-0.3154297
751,0,-0.5,-0.125,-0.03076172,0.01513672,0.9750977,0.08398438,-0.105957,-0.3154297
752,0.3125,-0.0625,0,-0.04248047,0.02685547,0.9829102,0.08740234,-0.1118164,-0.3139648
754,0,0,-0.4375,-0.03857422,0,0.9829102,0.08740234,-0.1118164,-0.3139648
755,0.25,-0.4375,-0.125,-0.04248047,-0.01904297,0.9711914,0.08740234,-0.1118164,-0.3139648
757,-0.125,-0.625,-0.5,-0.01513672,0.003417969,0.9672852,0.08740234,-0.1118164,-0.3139648
758,0.25,-0.1875,0.3125,-0.04638672,0.01123047,0.9594727,0.08740234,-0.1118164,-0.3139648
760,-0.0625,0.25,0,-0.04248047,0.007324219,0.9594727,0.08740234,-0.1118164,-0.3139648
761,-0.125,0,-0.3125,-0.03466797,0.007324219,0.9438477,0.08740234,-0.1118164,-0.3139648
763,-0.625,-0.625,0.0625,-0.03466797,0.007324219,0.9672852,0.08154297,-0.1108398,-0.3110352
764,-0.875,-0.375,0,-0.04248047,0.003417969,0.9711914,0.08154297,-0.1108398,-0.3110352
766,-0.6875,0.125,0,-0.03857422,0.01513672,0.9829102,0.08154297,-0.1108398,-0.3110352
767,-0.9375,-0.0625,-0.6875,-0.05029297,0.01123047,0.9829102,0.08837891,-0.1108398,-0.3154297
769,-0.5625,-0.375,-0.5,-0.01513672,0.003417969,0.9633789,0.08837891,-0.1108398,-0.3154297
770,-0.4375,-0.375,-0.125,-0.03466797,0,0.9829102,0.08837891,-0.1108398,-0.3154297
772,0,-0.25,-0.1875,-0.03466797,0.01123047,0.9829102,0.08837891,-0.1108398,-0.3154297
773,-1,-0.3125,0.0625,-0.03076172,0.01123047,0.9672852,0.08837891,-0.1108398,-0.3154297
775,-0.75,-0.3125,-0.125,-0.05419922,0.007324219,0.9868164,0.08837891,-0.1108398,-0.3154297
776,-0.4375,-0.3125,-0.1875,-0.03857422,0,0.9633789,0.08837891,-0.1108398,-0.3154297
778,-0.3125,-0.0625,-0.3125,-0.01513672,0,0.9594727,0.08740234,-0.1201172,-0.3081055
781,-0.75,-0.375,0,-0.01904297,0.003417969,0.9711914,0.08740234,-0.1201172,-0.3081055
783,-0.0625,0.5625,0,-0.05029297,0.01123047,0.9555664,0.08740234,-0.1201172,-0.3081055
784,0,0.125,-0.5,-0.03857422,-0.007324219,0.9868164,0.08496094,-0.109375,-0.3208008
786,-0.5625,0.1875,-0.25,-0.03466797,0.01123047,0.9516602,0.08496094,-0.109375,-0.3208008
787,-0.0625,0.1875,0.25,-0.03076172,0.01513672,0.9555664,0.08496094,-0.109375,-0.3208008
789,-0.375,0.0625,-0.5,-0.04638672,0.003417969,0.9907227,0.08007813,-0.109375,-0.3193359
790,0.375,0.375,-0.25,-0.02685547,0.003417969,0.9946289,0.08007813,-0.109375,-0.3193359
792,-0.3125,0,-0.125,0,0.01123047,0.9829102,0.08007813,-0.109375,-0.3193359
793,0.0625,0.1875,0.0625,-0.02685547,0.01123047,0.9594727,0.08007813,-0.109375,-0.3193359
795,-0.125,0.0625,-0.125,-0.03076172,0,0.9790039,0.08496094,-0.112793,-0.3071289
796,-0.8125,0,-0.4375,-0.02685547,0.007324219,0.9907227,0.08496094,-0.112793,-0.3071289
798,-0.125,0.125,-0.1875,-0.03466797,-0.01513672,0.9672852,0.08496094,-0.112793,-0.3071289
799,0,-0.4375,-0.6875,-0.05029297,0,0.9633789,0.09179688,-0.1035156,-0.3193359
801,-0.25,-0.25,0.4375,-0.04638672,-0.01123047,0.9868164,0.09179688,-0.1035156,-0.3193359
802,-0.125,-0.4375,-0.5625,-0.03466797,-0.003417969,0.9555664,0.09179688,-0.1035156,-0.3193359
804,-0.5625,-0.1875,0.0625,-0.05029297,0,0.9829102,0.0859375,-0.1010742,-0.3125
805,-0.625,-0.375,0.25,-0.03466797,0.007324219,0.9711914,0.0859375,-0.1010742,-0.3125
807,-0.3125,-0.5625,-0.125,-0.04248047,0.003417969,0.9633789,0.0859375,-0.1010742,-0.3125
808,-0.4375,-0.625,0.125,-0.03857422,0.01123047,1.005859,0.0859375,-0.1010742,-0.3125
810,-1.25,-0.625,-0.625,-0.03857422,-0.003417969,0.9633789,0.08837891,-0.1069336,-0.3178711
811,-0.5,-1.0625,0,-0.03857422,0,0.9633789,0.08837891,-0.1069336,-0.3178711
813,-0.6875,-0.375,0.0625,-0.04638672,-0.01513672,0.9907227,0.08837891,-0.1069336,-0.3178711
814,-0.3125,-0.5625,-0.125,-0.05419922,0.03076172,0.9594727,0.09082031,-0.1142578,-0.3154297
816,-0.5625,-1.3125,-0.125,-0.03076172,-0.007324219,0.9750977,0.09082031,-0.1142578,-0.3154297
817,-1.1875,-0.4375,0.0625,-0.02685547,-0.003417969,0.9907227,0.09082031,-0.1142578,-0.3154297
819,-1.125,-0.875,0.3125,-0.03076172,0,0.9555664,0.09082031,-0.1118164,-0.3208008
820,-0.75,-0.6875,-0.0625,-0.03857422,-0.003417969,0.9516602,0.09082031,-0.1118164,-0.3208008
822,-1,-0.3125,-0.25,-0.05029297,-0.007324219,0.9829102,0.09082031,-0.1118164,-0.3208008
823,-0.4375,-0.8125,-0.25,-0.02685547,0.003417969,0.9633789,0.09082031,-0.1118164,-0.3208008
825,-0.625,-1,0.25,-0.05029297,0.007324219,0.9633789,0.09082031,-0.1118164,-0.3208008
826,-0.6875,-0.8125,-0.1875,-0.02685547,0.003417969,1.001953,0.09082031,-0.1118164,-0.3208008
828,-0.4375,-0.875,-0.375,-0.03466797,-0.003417969,0.9633789,0.09082031,-0.1118164,-0.3208008
829,-0.75,-1,-0.0625,-0.03076172,0,0.9829102,0.0859375,-0.1142578,-0.3208008
831,0,-0.25,0.25,-0.03076172,0.003417969,0.9829102,0.0859375,-0.1142578,-0.3208008
832,-0.1875,-0.875,-0.375,-0.02685547,0,0.9907227,0.0859375,-0.1142578,-0.3208008
834,-0.25,0.0625,0,-0.02294922,0.01123047,0.9594727,0.08496094,-0.1118164,-0.3237305
835,-0.0625,-0.75,0,-0.03466797,-0.003417969,0.9555664,0.08496094,-0.1118164,-0.3237305
837,-0.125,-0.3125,-0.1875,-0.01513672,0.007324219,0.9711914,0.08496094,-0.1118164,-0.3237305
838,0.125,-0.5,-0.5,-0.04248047,-0.003417969,0.9633789,0.08740234,-0.112793,-0.3178711
840,0.0625,-0.1875,-0.3125,-0.01513672,-0.003417969,0.9516602,0.08740234,-0.112793,-0.3178711
841,0.125,-0.1875,-0.1875,-0.03857422,0.007324219,0.9633789,0.08740234,-0.112793,-0.3178711
843,0.625,0.125,-0.4375,-0.03466797,-0.007324219,0.9829102,0.08740234,-0.112793,-0.3178711
844,0.0625,0,-0.4375,-0.03466797,-0.007324219,0.9868164,0.09326172,-0.1069336,-0.3168945
846,0.1875,-0.25,-0.4375,-0.01513672,-0.01513672,0.9555664,0.09326172,-0.1069336,-0.3168945
847,-0.125,0.0625,-0.5625,-0.04638672,0,0.9790039,0.09326172,-0.1069336,-0.3168945
849,0.4375,-0.625,-0.3125,-0.04248047,0.01123047,0.9711914,0.08984375,-0.109375,-0.3266602
850,0.1875,-0.625,-0.3125,-0.03076172,0.01513672,0.9750977,0.08984375,-0.109375,-0.3266602
852,0.3125,-0.125,-0.0625,-0.03857422,0,0.9672852,0.08984375,-0.109375,-0.3266602
853,0,-0.4375,-0.4375,-0.03466797,0.01123047,0.9868164,0.09082031,-0.109375,-0.3178711
855,0.5,-0.5,-0.375,-0.03076172,0.01513672,0.9829102,0.09082031,-0.109375,-0.3178711
856,0.125,-0.1875,-0.5625,-0.02685547,-0.01123047,0.9672852,0.09082031,-0.109375,-0.3178711
858,-0.1875,-0.5625,-0.1875,-0.02685547,0,0.9594727,0.09082031,-0.109375,-0.3178711
859,0.125,-0.1875,0,-0.03857422,-0.01123047,0.9594727,0.0859375,-0.09912109,-0.3154297
861,0.5,-0.125,-0.125,-0.05419922,0,0.9829102,0.0859375,-0.09912109,-0.3154297
862,-0.125,-0.4375,0,-0.01513672,-0.007324219,0.9672852,0.0859375,-0.09912109,-0.3154297
864,0.4375,-0.4375,-0.375,-0.03076172,0.01513672,0.9829102,0.0859375,-0.109375,-0.3178711
865,0.5625,-0.25,-0.0625,-0.04248047,-0.003417969,0.9477539,0.0859375,-0.109375,-0.3178711
867,0.3125,-0.3125,0,-0.04248047,-0.003417969,0.9672852,0.0859375,-0.109375,-0.3178711
868,0.1875,-0.375,-0.0625,-0.01513672,0.007324219,0.9555664,0.09082031,-0.1142578,-0.3168945
870,0.3125,-0.125,-0.6875,-0.02294922,0.003417969,0.9829102,0.09082031,-0.1142578,-0.3168945
871,0.5625,-0.5625,-0.1875,-0.02685547,0.01513672,0.9594727,0.09082031,-0.1142578,-0.3168945
873,0.8125,0.0625,-0.375,-0.04638672,0.003417969,0.9829102,0.09082031,-0.1142578,-0.3168945
874,0.4375,0.5,-0.0625,-0.03466797,0.01513672,0.9672852,0.0859375,-0.109375,-0.3237305
876,1.3125,0.25,-0.1875,-0.04248047,0.01513672,0.9477539,0.0859375,-0.109375,-0.3237305
878,0.6875,0.25,-0.25,-0.03466797,-0.003417969,0.9477539,0.0859375,-0.109375,-0.3237305
880,0.75,-0.25,-0.0625,-0.04638672,0,0.9907227,0.08740234,-0.1108398,-0.3168945
881,0.75,-0.75,0,-0.03076172,0.01123047,0.9477539,0.08740234,-0.1108398,-0.3168945
883,0.5,-0.625,-0.5625,-0.04638672,-0.007324219,1.001953,0.08740234,-0.1108398,-0.3168945
884,0.75,-0.25,0.3125,-0.01513672,0.01513672,0.9790039,0.08984375,-0.112793,-0.3125
886,0.0625,-0.625,0.25,-0.05029297,0.01513672,0.9790039,0.08984375,-0.112793,-0.3125
887,0,-0.6875,-0.375,-0.02685547,0.01513672,0.9672852,0.08984375,-0.112793,-0.3125
889,0,-0.4375,-0.4375,-0.04248047,0,0.9633789,0.08984375,-0.112793,-0.3125
890,0.125,-0.5,0.0625,-0.02685547,0.01513672,0.9633789,0.08984375,-0.112793,-0.3125
892,-0.1875,-1.25,-0.25,-0.03076172,0.003417969,0.9555664,0.08984375,-0.112793,-0.3125
893,-0.0625,-1.3125,-0.1875,-0.03076172,0.01123047,0.9907227,0.08984375,-0.112793,-0.3125
895,-0.125,-1.125,-0.125,-0.01513672,-0.01513672,0.9750977,0.08007813,-0.112793,-0.3251953
896,-0.25,-1.0625,0,-0.03076172,0.007324219,0.9672852,0.08007813,-0.112793,-0.3251953
898,-0.375,-0.5,0.0625,-0.01513672,-0.01513672,0.9594727,0.08007813,-0.112793,-0.3251953
899,0,-0.875,-0.25,-0.03076172,0.007324219,0.9594727,0.0859375,-0.109375,-0.3178711
901,-0.875,-1.0625,-0.625,-0.03076172,0,0.9711914,0.0859375,-0.109375,-0.3178711
902,-0.25,-1,-0.25,-0.04248047,0.003417969,0.9711914,0.0859375,-0.109375,-0.3178711
904,0,-0.75,0.3125,-0.01123047,-0.003417969,0.9672852,0.0859375,-0.109375,-0.3178711
905,0,-1.375,0,-0.03466797,0.003417969,0.9516602,0.0859375,-0.109375,-0.3178711
907,0.625,-1.375,-0.0625,-0.04638672,0.01904297,0.9829102,0.0859375,-0.109375,-0.3178711
908,-0.25,-0.9375,-0.1875,-0.05029297,-0.01513672,0.9750977,0.0859375,-0.109375,-0.3178711
910,-0.1875,-1.6875,0,-0.05029297,-0.003417969,0.9711914,0.09179688,-0.1049805,-0.3110352
911,-0.5,-1.0625,-0.25,-0.03466797,0.003417969,0.9829102,0.09179688,-0.1049805,-0.3110352
913,-0.25,-1.0625,0.5625,-0.03466797,-0.003417969,0.9829102,0.09179688,-0.1049805,-0.3110352
914,-0.625,-1.6875,0,-0.03466797,0.003417969,0.9555664,0.0859375,-0.1162109,-0.3237305
916,-1.125,-0.875,0.25,-0.01513672,0,0.9672852,0.0859375,-0.1162109,-0.3237305
917,-0.5,-0.375,0.3125,-0.01513672,0.003417969,0.9829102,0.0859375,-0.1162109,-0.3237305
919,-0.75,-1.1875,-0.25,-0.01513672,-0.003417969,0.9907227,0.08496094,-0.1176758,-0.3154297
920,-1.125,-1.5,0.3125,-0.03466797,-0.003417969,0.9711914,0.08496094,-0.1176758,-0.3154297
922,-0.25,-1.5,0.125,-0.04248047,0.003417969,0.9750977,0.08496094,-0.1176758,-0.3154297
923,-1.8125,-1.625,0.4375,-0.04638672,0.003417969,0.9829102,0.08496094,-0.1176758,-0.3154297
925,-1.125,-1.6875,0,-0.04638672,0,0.9672852,0.0859375,-0.1162109,-0.3168945
926,-1.125,-1.3125,0.5,-0.01513672,0.02294922,0.9477539,0.0859375,-0.1162109,-0.3168945
928,-1,-1.5,-0.1875,-0.02294922,-0.003417969,0.9790039,0.0859375,-0.1162109,-0.3168945
929,-0.6875,-1.9375,-0.3125,-0.03466797,0.003417969,0.9672852,0.09179688,-0.1083984,-0.3139648
931,-0.9375,-1.0625,0.125,-0.03076172,0.007324219,0.9672852,0.09179688,-0.1083984,-0.3139648
932,-0.25,-0.8125,-0.3125,-0.03466797,0.007324219,0.9633789,0.09179688,-0.1083984,-0.3139648
934,0.3125,-0.75,-0.25,-0.03466797,0,0.9711914,0.08496094,-0.109375,-0.3081055
935,0.1875,-0.8125,-0.4375,-0.01513672,0.02294922,0.9868164,0.08496094,-0.109375,-0.3081055
937,-0.6875,-0.625,-0.3125,-0.02685547,-0.007324219,0.9829102,0.08496094,-0.109375,-0.3081055
938,-0.3125,0,-0.1875,-0.02294922,-0.01513672,0.9672852,0.08496094,-0.109375,-0.3081055
940,0,0,-0.4375,-0.04248047,-0.003417969,0.9790039,0.08837891,-0.105957,-0.3193359
941,0,0.3125,-0.5625,-0.03076172,-0.003417969,0.9750977,0.08837891,-0.105957,-0.3193359
943,-0.125,-0.4375,-0.4375,-0.02685547,0,0.9711914,0.08837891,-0.105957,-0.3193359
944,0.75,0.375,-0.4375,-0.03466797,0.003417969,0.9633789,0.0859375,-0.105957,-0.3193359
946,-0.1875,-0.1875,-0.625,-0.03076172,-0.003417969,0.9672852,0.0859375,-0.105957,-0.3193359
947,-0.3125,-0.0625,-0.4375,-0.02685547,0.01123047,0.9711914,0.0859375,-0.105957,-0.3193359
949,0.6875,-0.3125,-0.5,-0.04638672,0.007324219,0.9829102,0.08154297,-0.1142578,-0.3168945
950,0.5,-0.4375,-0.4375,-0.04248047,0.03076172,0.9672852,0.08154297,-0.1142578,-0.3168945
952,0.25,0.375,-0.625,-0.02685547,-0.003417969,0.9711914,0.08154297,-0.1142578,-0.3168945
953,-0.25,0.0625,-0.8125,-0.02294922,0.03076172,0.9594727,0.08154297,-0.1142578,-0.3168945
955,-0.1875,0.3125,-0.125,-0.03076172,0.003417969,0.9633789,0.08154297,-0.1142578,-0.3168945
956,0.6875,0.1875,-0.375,-0.02685547,0.01123047,0.9711914,0.08154297,-0.1142578,-0.3168945
958,0.9375,1.375,-0.625,-0.03076172,-0.01513672,0.9555664,0.08154297,-0.1142578,-0.3168945
959,0.6875,0.8125,-0.4375,-0.01904297,-0.003417969,0.9829102,0.0859375,-0.1083984,-0.3125
961,0.9375,1.1875,-0.1875,-0.03857422,0.01904297,0.9633789,0.0859375,-0.1083984,-0.3125
962,0.75,1,-0.5,-0.03857422,-0.003417969,0.9750977,0.0859375,-0.1083984,-0.3125
964,0.75,1.5,-0.625,-0.03857422,0.01123047,0.9594727,0.08837891,-0.1118164,-0.3193359
965,0.5,0.5,-0.375,-0.05029297,0.01123047,0.9477539,0.08837891,-0.1118164,-0.3193359
967,0.9375,1.4375,-0.3125,-0.02685547,-0.007324219,0.9633789,0.08837891,-0.1118164,-0.3193359
968,-0.0625,1.125,-0.3125,-0.03466797,0,0.9711914,0.09179688,-0.1069336,-0.3266602
970,1,0.75,-0.3125,-0.03466797,0,0.9711914,0.09179688,-0.1069336,-0.3266602
971,0.125,1.3125,-0.75,-0.04248047,-0.003417969,0.9829102,0.09179688,-0.1069336,-0.3266602
973,0.75,0.5625,-0.8125,-0.02294922,-0.003417969,0.9868164,0.09179688,-0.1069336,-0.3266602
975,0.8125,0.6875,-0.3125,-0.03076172,-0.02294922,0.9516602,0.09082031,-0.1049805,-0.3154297
977,0.3125,0.375,-0.6875,-0.04638672,0.003417969,0.9633789,0.09082031,-0.1049805,-0.3154297
978,0.5625,0.3125,-0.1875,-0.05029297,0.007324219,0.9829102,0.09082031,-0.1049805,-0.3154297
980,0.625,0.6875,-0.25,-0.05029297,-0.003417969,0.9633789,0.08251953,-0.1162109,-0.3125
981,0.9375,0.5,-0.625,-0.05029297,-0.003417969,0.9868164,0.08251953,-0.1162109,-0.3125
983,0.25,0.1875,-0.5,-0.01123047,0.003417969,0.9711914,0.08251953,-0.1162109,-0.3125
984,0.1875,0,-0.5,-0.03857422,0.003417969,0.9633789,0.09765625,-0.105957,-0.3266602
986,0.1875,0.3125,-0.25,-0.03857422,0,0.9829102,0.09765625,-0.105957,-0.3266602
987,-0.25,-0.1875,0,-0.03076172,0.003417969,0.9829102,0.09765625,-0.105957,-0.3266602
989,0.1875,-0.5625,-0.5625,-0.04248047,0.01513672,0.9829102,0.09765625,-0.105957,-0.3266602
990,-0.3125,-0.375,-0.1875,-0.01904297,0.01123047,0.9868164,0.09765625,-0.1108398,-0.3168945
992,0.1875,-0.25,-0.125,-0.04248047,-0.01123047,0.9711914,0.09765625,-0.1108398,-0.3168945
993,-0.125,-1,-0.25,-0.05029297,0.003417969,0.9672852,0.09765625,-0.1108398,-0.3168945
995,0.25,-0.3125,-0.5,-0.03466797,-0.003417969,0.9829102,0.0859375,-0.109375,-0.3154297
996,-0.4375,-0.9375,-0.6875,-0.05029297,-0.007324219,0.9711914,0.0859375,-0.109375,-0.3154297
998,-0.3125,-0.5625,0.0625,-0.03857422,0.007324219,0.9633789,0.0859375,-0.109375,-0.3154297
999,-0.3125,-1,-0.75,-0.01513672,-0.003417969,0.9594727,0.08496094,-0.105957,-0.3251953
1001,-0.125,-1.125,-0.5625,-0.03076172,-0.02294922,0.9711914,0.08496094,-0.105957,-0.3251953
1002,0,-0.375,0,-0.03466797,-0.007324219,0.9868164,0.08496094,-0.105957,-0.3251953
1004,0.1875,-0.375,-0.5,-0.03857422,-0.007324219,0.9516602,0.08496094,-0.105957,-0.3251953
1005,-0.125,-0.25,0.0625,-0.02685547,-0.003417969,0.9555664,0.09179688,-0.1118164,-0.3178711
1007,0.375,-0.375,-0.25,-0.03076172,0.01513672,0.9711914,0.09179688,-0.1118164,-0.3178711
1008,0.1875,0.5,-0.0625,-0.01123047,0.007324219,0.9829102,0.09179688,-0.1118164,-0.3178711
1010,0.375,0,-0.625,-0.02685547,0,0.9829102,0.09179688,-0.1069336,-0.3168945
1011,0.4375,-0.1875,-0.125,-0.04248047,0.007324219,0.9907227,0.09179688,-0.1069336,-0.3168945
1013,0.1875,0.0625,-0.125,-0.02294922,-0.003417969,0.9633789,0.09179688,-0.1069336,-0.3168945
1014,-0.1875,-0.1875,0.25,-0.03076172,-0.01513672,0.9672852,0.08740234,-0.1069336,-0.3095703
1016,-0.375,0.375,0,-0.04638672,-0.02294922,0.9750977,0.08740234,-0.1069336,-0.3095703
1017,-0.125,-0.4375,-0.0625,-0.04638672,-0.003417969,0.9750977,0.08740234,-0.1069336,-0.3095703
1019,-0.125,-0.375,0,-0.01513672,0,0.9829102,0.08740234,-0.1069336,-0.3095703
1020,-0.0625,-0.375,-0.0625,-0.03857422,0.01904297,0.9633789,0.08740234,-0.1069336,-0.3095703
1022,0.0625,-0.3125,0,-0.03076172,0.007324219,0.9829102,0.08740234,-0.1069336,-0.3095703
1023,-0.3125,0.0625,-0.0625,-0.04248047,0.007324219,1.001953,0.08740234,-0.1069336,-0.3095703
1025,0,0,-0.1875,-0.01513672,0.007324219,0.9672852,0.08496094,-0.1152344,-0.3125
1026,0.375,0,-0.1875,-0.02685547,-0.007324219,0.9477539,0.08496094,-0.1152344,-0.3125
1028,0.0625,0.1875,-0.4375,-0.02294922,0.007324219,0.9750977,0.08496094,-0.1152344,-0.3125
1029,0,0.6875,0.0625,-0.02294922,0.007324219,0.9750977,0.0859375,-0.105957,-0.3168945
1031,0,0.375,-0.75,-0.03076172,0.02294922,0.9477539,0.0859375,-0.105957,-0.3168945
1032,0.375,0,-0.625,-0.03857422,0.003417969,0.9711914,0.0859375,-0.105957,-0.3168945
1034,0.3125,0.25,-0.5625,-0.03857422,-0.007324219,0.9672852,0.0859375,-0.105957,-0.3168945
1035,0.6875,1.375,-0.3125,-0.02685547,0.01513672,1.001953,0.0859375,-0.105957,-0.3168945
1037,0.5,-0.0625,-0.4375,-0.03466797,0.007324219,0.9829102,0.0859375,-0.105957,-0.3168945
1038,-0.25,0.375,-0.5,-0.01123047,0.003417969,0.9438477,0.0859375,-0.105957,-0.3168945
1040,0.9375,0.6875,-0.3125,-0.03857422,0,0.9633789,0.08984375,-0.1152344,-0.3110352
1041,0.25,0.3125,-0.5,-0.03466797,-0.01513672,1.001953,0.08984375,-0.1152344,-0.3110352
1043,0,0.5,-0.5,-0.04638672,-0.007324219,0.9750977,0.08984375,-0.1152344,-0.3110352
1044,0.3125,0.5,-0.3125,-0.01513672,-0.003417969,0.9907227,0.08837891,-0.1083984,-0.3125
1046,-0.0625,0.0625,-0.5625,-0.04638672,0,0.9946289,0.08837891,-0.1083984,-0.3125
1047,-0.25,0.1875,-0.1875,-0.04248047,0.01513672,0.9711914,0.08837891,-0.1083984,-0.3125
1049,0.125,0.125,-0.5625,-0.02685547,-0.007324219,0.9829102,0.08398438,-0.1069336,-0.3125
1050,0.0625,0.75,-0.1875,-0.01513672,0,0.9829102,0.08398438,-0.1069336,-0.3125
1052,0.3125,0.375,0,-0.05810547,0.01123047,0.9750977,0.08398438,-0.1069336,-0.3125
1053,0,0,-0.25,-0.05029297,-0.003417969,0.9711914,0.08398438,-0.1069336,-0.3125
1055,0,0.5625,-0.25,-0.01513672,-0.003417969,0.9829102,0.08984375,-0.1108398,-0.3095703
1056,0.125,0.5625,-0.3125,-0.02294922,0,0.9711914,0.08984375,-0.1108398,-0.3095703
1058,-0.0625,-0.1875,-0.25,-0.03857422,0.003417969,0.9672852,0.08984375,-0.1108398,-0.3095703
1059,-0.3125,0.3125,-0.0625,-0.01513672,-0.02294922,0.9633789,0.09082031,-0.1118164,-0.3081055
1061,-0.5625,0.4375,-0.0625,-0.02685547,0.007324219,0.9633789,0.09082031,-0.1118164,-0.3081055
1062,-0.5,0.125,0.0625,-0.03857422,-0.01513672,0.9829102,0.09082031,-0.1118164,-0.3081055
1064,-0.75,0,0,-0.05029297,0.003417969,0.9555664,0.0859375,-0.1118164,-0.3095703
1065,-0.6875,0.1875,-0.25,-0.03466797,0.007324219,0.9946289,0.0859375,-0.1118164,-0.3095703
1067,-0.25,0.0625,-0.1875,-0.03466797,0,0.9633789,0.0859375,-0.1118164,-0.3095703
1068,-0.375,-0.0625,-0.3125,-0.01513672,-0.01513672,0.9868164,0.0859375,-0.1118164,-0.3095703
1070,-0.375,0.125,0.3125,-0.01513672,0.003417969,0.9829102,0.09326172,-0.1083984,-0.3178711
1072,-0.125,0.375,-0.25,-0.03857422,0.01123047,0.9672852,0.09326172,-0.1083984,-0.3178711
1074,-0.3125,-0.3125,0.125,-0.03857422,0,0.9516602,0.09326172,-0.1083984,-0.3178711
1075,0.25,-0.4375,-0.6875,-0.01513672,0.007324219,0.9594727,0.08837891,-0.1010742,-0.3095703
1077,-0.125,0.125,0,-0.01123047,0.003417969,0.9868164,0.08837891,-0.1010742,-0.3095703
1078,-0.125,0.4375,0.0625,-0.04248047,0.01513672,1.001953,0.08837891,-0.1010742,-0.3095703
1080,0.0625,-0.3125,-0.375,-0.03466797,0.007324219,0.9829102,0.08740234,-0.1069336,-0.3193359
1081,0.25,-0.25,-0.4375,-0.01513672,0,0.9829102,0.08740234,-0.1069336,-0.3193359
1083,-0.0625,-0.25,-0.3125,-0.01513672,0,0.9829102,0.08740234,-0.1069336,-0.3193359
1084,0.0625,0,-0.25,-0.04248047,-0.01123047,0.9672852,0.08740234,-0.1069336,-0.3193359
1086,0,-0.6875,-0.375,-0.01513672,-0.003417969,0.9829102,0.08740234,-0.1069336,-0.3193359
1087,-0.125,-0.1875,-0.125,-0.03466797,0.003417969,0.9711914,0.08740234,-0.1069336,-0.3193359
1089,-0.375,0,-0.6875,-0.03466797,0.003417969,0.9633789,0.08740234,-0.1069336,-0.3193359
1090,0.1875,-0.375,-0.0625,-0.01513672,0.003417969,0.9594727,0.08984375,-0.1069336,-0.3168945
1092,0.0625,0,-0.125,-0.04248047,-0.007324219,0.9477539,0.08984375,-0.1069336,-0.3168945
1093,0.0625,0.625,-0.125,-0.003417969,0.03076172,0.9907227,0.08984375,-0.1069336,-0.3168945
1095,0.4375,0.25,-0.5,-0.03076172,-0.01513672,0.9868164,0.09765625,-0.112793,-0.3081055
1096,0.0625,0.4375,-0.0625,-0.05029297,0.007324219,1.001953,0.09765625,-0.112793,-0.3081055
1098,0.125,-0.1875,-0.375,-0.04248047,-0.01513672,0.9868164,0.09765625,-0.112793,-0.3081055
1099,0.3125,-0.0625,-0.125,-0.03076172,0.01513672,0.9829102,0.09765625,-0.112793,-0.3081055
1101,0,-0.3125,-0.1875,-0.01513672,0.007324219,0.9516602,0.09765625,-0.112793,-0.3081055
1102,0.3125,-0.6875,-0.625,-0.03466797,-0.007324219,0.9633789,0.09765625,-0.112793,-0.3081055
1104,0.125,-0.25,-0.0625,-0.02294922,-0.007324219,0.9829102,0.09765625,-0.112793,-0.3081055
1105,0.4375,-0.375,-0.3125,-0.01513672,0.003417969,0.9672852,0.0859375,-0.1142578,-0.3110352
1107,0,0.0625,0,-0.03466797,0,0.9790039,0.0859375,-0.1142578,-0.3110352
1108,0,-0.5625,-0.25,-0.05029297,0.03076172,0.9750977,0.0859375,-0.1142578,-0.3110352
1110,0.25,-0.125,-0.3125,-0.01123047,-0.003417969,0.9829102,0.08154297,-0.1176758,-0.3193359
1111,0.5,-0.1875,-0.3125,-0.007324219,0.01123047,0.9829102,0.08154297,-0.1176758,-0.3193359
1113,0,-0.25,-0.1875,-0.03857422,-0.01513672,0.9829102,0.08154297,-0.1176758,-0.3193359
1114,0.375,-1,-0.5,-0.05029297,0.007324219,0.9633789,0.08740234,-0.1010742,-0.3154297
1116,-0.125,0,-0.5625,-0.03076172,0,0.9750977,0.08740234,-0.1010742,-0.3154297
1117,0.25,-0.5,0.1875,-0.03466797,0.003417969,0.9672852,0.08740234,-0.1010742,-0.3154297
1119,0.25,-0.625,-0.0625,-0.03076172,0.01513672,0.9594727,0.08740234,-0.1010742,-0.3154297
1120,-0.5,-0.6875,-0.75,-0.05419922,0.007324219,0.9750977,0.0859375,-0.112793,-0.3125
1122,-0.5,-0.5,0.125,-0.03857422,0.007324219,0.9672852,0.0859375,-0.112793,-0.3125
1123,0.3125,-0.375,-0.0625,-0.02685547,-0.007324219,0.9633789,0.0859375,-0.112793,-0.3125
1125,-0.1875,-0.5,0,-0.03466797,0.003417969,0.9829102,0.09179688,-0.09912109,-0.3276367
1126,-0.125,-0.125,0,-0.04248047,-0.003417969,0.9711914,0.09179688,-0.09912109,-0.3276367
1128,-0.0625,-0.5,-0.25,-0.03466797,0.007324219,0.9633789,0.09179688,-0.09912109,-0.3276367
1129,-0.3125,-0.25,-0.5625,-0.02294922,0,0.9829102,0.08154297,-0.1108398,-0.3237305
1131,-0.0625,-0.6875,-0.375,-0.02685547,0,0.9829102,0.08154297,-0.1108398,-0.3237305
1132,-0.1875,-0.5625,0,-0.01513672,-0.003417969,0.9829102,0.08154297,-0.1108398,-0.3237305
1134,-0.3125,-0.0625,-0.375,-0.02294922,0.01513672,0.9672852,0.08154297,-0.1108398,-0.3237305
1135,0.375,-0.625,-0.375,-0.03466797,0,0.9750977,0.08837891,-0.1108398,-0.3139648
1137,-0.5,-0.375,0,-0.04248047,0,0.9633789,0.08837891,-0.1108398,-0.3139648
1138,0,-0.375,-0.1875,-0.02685547,0,0.9633789,0.08837891,-0.1108398,-0.3139648
1140,-0.5625,-0.5,-0.25,-0.03076172,0.01123047,0.9711914,0.08837891,-0.109375,-0.3154297
1141,-0.125,0,-0.4375,-0.04248047,0.003417969,0.9594727,0.08837891,-0.109375,-0.3154297
1143,0.5625,-0.8125,-0.3125,-0.04248047,-0.003417969,0.9711914,0.08837891,-0.109375,-0.3154297
1144,0.0625,-0.5625,-0.3125,-0.03857422,0.01513672,0.9790039,0.09326172,-0.109375,-0.3193359
1146,-0.25,-0.125,-0.3125,-0.04248047,-0.003417969,0.9829102,0.09326172,-0.109375,-0.3193359
1147,0,-0.4375,0,-0.01513672,0.01123047,0.9790039,0.09326172,-0.109375,-0.3193359
1149,0.1875,-0.5,-0.5,-0.03076172,0.007324219,0.9868164,0.09326172,-0.109375,-0.3193359
1150,-0.25,-0.6875,-0.375,-0.03076172,0,0.9790039,0.09326172,-0.109375,-0.3193359
1152,0.125,-0.5,-0.1875,-0.02685547,0.003417969,0.9946289,0.09326172,-0.109375,-0.3193359
1153,-0.5,-0.5,-0.4375,-0.03076172,-0.01513672,0.9711914,0.09326172,-0.109375,-0.3193359
1155,0.1875,-0.375,-0.6875,-0.04248047,0,0.9829102,0.09667969,-0.109375,-0.3178711
1156,-0.125,-0.3125,-0.8125,-0.01513672,-0.01123047,0.9594727,0.09667969,-0.109375,-0.3178711
1158,0,0,-0.125,-0.02294922,0,0.9672852,0.09667969,-0.109375,-0.3178711
1159,-0.125,-0.125,-0.3125,-0.03076172,-0.003417969,0.9829102,0.08740234,-0.112793,-0.3168945
1161,0.0625,0.375,-0.375,-0.007324219,-0.007324219,0.9516602,0.08740234,-0.112793,-0.3168945
1162,0.0625,-0.25,-0.25,-0.01513672,-0.007324219,0.9516602,0.08740234,-0.112793,-0.3168945
1164,0,-0.375,-0.4375,-0.04248047,0,0.9829102,0.08740234,-0.112793,-0.3168945
1165,0,-0.125,-0.375,-0.03076172,0.007324219,0.9672852,0.08740234,-0.112793,-0.3168945
1167,0.125,-0.5625,-0.5625,-0.02294922,-0.003417969,0.9672852,0.08740234,-0.112793,-0.3168945
1170,0,-0.375,-0.5,-0.03076172,0.007324219,0.9711914,0.08740234,-0.112793,-0.3168945
1172,0.125,-0.125,-0.5625,0.003417969,-0.01123047,0.9438477,0.08154297,-0.1049805,-0.3178711
1173,0.1875,-0.0625,-0.4375,-0.003417969,0.01123047,0.9594727,0.08154297,-0.1049805,-0.3178711
1175,0.3125,0.4375,-0.1875,-0.01513672,0.003417969,0.9594727,0.08154297,-0.1049805,-0.3178711
1176,0.3125,-0.125,-0.5625,-0.04638672,-0.01904297,0.9594727,0.08984375,-0.1162109,-0.3193359
1178,0,-0.125,-0.375,-0.03466797,0.007324219,0.9868164,0.08984375,-0.1162109,-0.3193359
1179,1,0.0625,0.125,-0.01513672,0.007324219,0.9829102,0.08984375,-0.1162109,-0.3193359
1181,0.125,-0.1875,-0.4375,-0.02294922,0,0.9750977,0.08837891,-0.1118164,-0.3154297
1182,-0.3125,-0.5625,-0.375,-0.03466797,0.01123047,0.9555664,0.08837891,-0.1118164,-0.3154297
1184,0.3125,0.1875,-0.8125,-0.04638672,-0.007324219,0.9555664,0.08837891,-0.1118164,-0.3154297
1185,-0.125,-0.3125,-0.4375,-0.02294922,0,0.9829102,0.08837891,-0.1118164,-0.3154297
1187,0.3125,-0.4375,-0.4375,-0.05029297,-0.01123047,0.9672852,0.08398438,-0.1069336,-0.3222656
1188,0.3125,-0.1875,-0.625,-0.03076172,0,0.9750977,0.08398438,-0.1069336,-0.3222656
1190,0.0625,0.25,-0.5625,-0.03076172,-0.007324219,0.9633789,0.08398438,-0.1069336,-0.3222656
1191,0.875,0,-0.125,-0.04638672,0.01123047,0.9829102,0.08740234,-0.1142578,-0.3139648
1193,-0.0625,-0.0625,-0.5,-0.01513672,0.01513672,0.9633789,0.08740234,-0.1142578,-0.3139648
1194,0.6875,0.25,-0.4375,-0.03466797,-0.003417969,0.9829102,0.08740234,-0.1142578,-0.3139648
1196,0,-0.0625,-0.5625,-0.03076172,0.01123047,0.9829102,0.08837891,-0.1069336,-0.3110352
1197,0.6875,0.375,-0.375,-0.03466797,0,0.9829102,0.08837891,-0.1069336,-0.3110352
1199,0.1875,0.5625,-0.625,-0.01513672,0,0.9829102,0.08837891,-0.1069336,-0.3110352
1200,0.75,-0.6875,0,-0.01513672,0,0.9750977,0.08837891,-0.1069336,-0.3110352
1202,0,-0.25,-0.8125,-0.01513672,0.01123047,0.9790039,0.08496094,-0.1049805,-0.3154297
1203,0,-0.1875,-0.1875,-0.03076172,-0.003417969,0.9829102,0.08496094,-0.1049805,-0.3154297
1205,-0.0625,0.25,-0.75,-0.03076172,-0.007324219,0.9555664,0.08496094,-0.1049805,-0.3154297
1206,0.375,-0.1875,-0.25,-0.03466797,0.007324219,0.9907227,0.08837891,-0.1118164,-0.3208008
1208,-0.375,0.0625,-0.25,-0.03076172,0.01513672,0.9829102,0.08837891,-0.1118164,-0.3208008
1209,-0.1875,0.25,-0.625,-0.02294922,0.01513672,0.9399414,0.08837891,-0.1118164,-0.3208008
1211,0.75,0.125,-0.4375,-0.03076172,0.003417969,0.9672852,0.09326172,-0.1108398,-0.3222656
1212,0.3125,-0.25,-0.75,-0.01904297,0.003417969,0.9711914,0.09326172,-0.1108398,-0.3222656
1214,0.4375,0.0625,-0.0625,-0.03857422,0.007324219,0.9672852,0.09326172,-0.1108398,-0.3222656
1215,0.375,-0.375,-0.5,-0.01904297,0.003417969,0.9594727,0.09326172,-0.1108398,-0.3222656
1217,-0.0625,-0.0625,-0.4375,-0.03466797,0.007324219,0.9711914,0.09326172,-0.1108398,-0.3222656
1218,1.0625,-0.3125,-0.375,-0.04638672,-0.003417969,0.9868164,0.09326172,-0.1108398,-0.3222656
1220,0.375,-0.3125,-0.3125,-0.02685547,-0.007324219,0.9711914,0.09326172,-0.1108398,-0.3222656
1221,0.4375,0.3125,-0.625,-0.03857422,-0.003417969,0.9829102,0.08154297,-0.1049805,-0.3139648
1223,0.5,0.3125,-1.1875,-0.01904297,0,0.9516602,0.08154297,-0.1049805,-0.3139648
1224,0.125,0.5,-0.6875,-0.03076172,0,0.9672852,0.08154297,-0.1049805,-0.3139648
1226,1,0.25,-0.6875,-0.05029297,0.003417969,0.9829102,0.09179688,-0.1118164,-0.3168945
1227,0.1875,0,-0.75,-0.03466797,-0.003417969,0.9594727,0.09179688,-0.1118164,-0.3168945
1229,0.8125,0.5625,-0.5,-0.03857422,0.01513672,0.9829102,0.09179688,-0.1118164,-0.3168945
1230,0.3125,0.1875,-0.8125,-0.01513672,0.007324219,0.9907227,0.09179688,-0.1118164,-0.3168945
1232,0.3125,0.375,-0.125,-0.03076172,0.007324219,0.9907227,0.09179688,-0.1118164,-0.3168945
1233,-0.1875,0.125,-0.5,-0.02685547,0,0.9711914,0.09179688,-0.1118164,-0.3168945
1235,0.4375,0.4375,-0.75,-0.01904297,0.007324219,0.9750977,0.09179688,-0.1118164,-0.3168945
1236,0.625,-0.4375,-0.8125,-0.03857422,0,0.9555664,0.08740234,-0.109375,-0.3125
1238,1.125,-0.6875,-0.3125,-0.03857422,-0.01513672,0.9790039,0.08740234,-0.109375,-0.3125
1239,0.1875,0.3125,-0.5,-0.03076172,-0.01513672,0.9750977,0.08740234,-0.109375,-0.3125
1241,0.5,0.5625,-0.125,-0.03466797,0.003417969,0.9829102,0.0859375,-0.1142578,-0.3208008
1242,0,0.3125,-0.375,-0.01513672,-0.01904297,0.9907227,0.0859375,-0.1142578,-0.3208008
1244,0.4375,-0.1875,-0.375,-0.03076172,0.003417969,0.9829102,0.0859375,-0.1142578,-0.3208008
1245,0.0625,-0.375,-0.3125,-0.05810547,-0.01123047,0.9829102,0.08984375,-0.1152344,-0.3110352
1247,0.5,-0.625,-1.125,-0.04248047,-0.003417969,0.9672852,0.08984375,-0.1152344,-0.3110352
1248,0.25,-0.375,-0.4375,-0.01513672,0.003417969,0.9790039,0.08984375,-0.1152344,-0.3110352
1250,-0.125,-0.0625,-0.75,-0.02685547,0.01123047,0.9829102,0.08984375,-0.1152344,-0.3110352
1251,0.5625,0.25,-0.5625,-0.03857422,0.01123047,0.9633789,0.08154297,-0.112793,-0.3168945
1253,0.375,0.125,-0.375,-0.03857422,0.003417969,0.9868164,0.08154297,-0.112793,-0.3168945
1254,0.4375,-0.0625,-0.9375,-0.01513672,-0.01123047,0.9711914,0.08154297,-0.112793,-0.3168945
1256,0.1875,-0.3125,-0.125,-0.05029297,0.01513672,0.9868164,0.08740234,-0.1069336,-0.3125
1257,0.375,0.375,-0.5,-0.02685547,0,0.9399414,0.08740234,-0.1069336,-0.3125
1259,0.0625,0.1875,-0.4375,-0.03466797,0.007324219,0.9750977,0.08740234,-0.1069336,-0.3125
1260,0.5,-0.1875,-0.5625,-0.03466797,0.007324219,0.9790039,0.08984375,-0.1108398,-0.3208008
1262,0.4375,-0.3125,-0.4375,-0.03076172,0.01123047,0.9829102,0.08984375,-0.1108398,-0.3208008
1263,0.25,0.5,-0.625,-0.03076172,0.01513672,0.9555664,0.08984375,-0.1108398,-0.3208008
1265,0.375,-0.3125,-0.625,-0.03076172,0,0.9555664,0.08984375,-0.1108398,-0.3208008
1267,0.1875,-0.3125,-0.6875,-0.02685547,-0.003417969,0.9829102,0.08984375,-0.1118164,-0.3168945
1269,0.3125,-0.375,-0.9375,-0.03857422,0.003417969,0.9672852,0.08984375,-0.1118164,-0.3168945
1270,0.1875,-0.25,-0.0625,-0.03857422,-0.007324219,0.9672852,0.08984375,-0.1118164,-0.3168945
1272,0.125,-0.4375,-0.125,-0.04248047,0,0.9790039,0.09423828,-0.1118164,-0.3266602
1273,0.1875,-0.1875,-0.125,-0.01513672,0.01123047,0.9829102,0.09423828,-0.1118164,-0.3266602
1275,0.1875,-0.0625,-0.1875,-0.03857422,0.01513672,0.9711914,0.09423828,-0.1118164,-0.3266602
1276,0,-0.1875,-0.375,-0.03857422,0.007324219,0.9711914,0.09179688,-0.105957,-0.3237305
1278,0.3125,-0.875,-0.25,-0.03466797,0.01513672,0.9672852,0.09179688,-0.105957,-0.3237305
1279,0.9375,-0.1875,-0.375,-0.04248047,0.003417969,0.9672852,0.09179688,-0.105957,-0.3237305
1281,-0.25,-0.625,-0.25,-0.02685547,-0.003417969,0.9633789,0.09179688,-0.105957,-0.3237305
1282,-0.0625,-0.5625,-0.0625,-0.03076172,-0.01123047,0.9711914,0.09179688,-0.105957,-0.3237305
1284,-0.0625,-0.125,-0.125,-0.04248047,-0.01513672,0.9829102,0.09179688,-0.105957,-0.3237305
1285,0.3125,0.1875,-0.375,-0.04248047,0,0.9829102,0.09179688,-0.105957,-0.3237305
1287,0,-0.0625,-0.4375,-0.03466797,0.007324219,0.9555664,0.08251953,-0.109375,-0.3178711
1288,0.6875,-0.0625,-0.3125,-0.01513672,0.007324219,0.9711914,0.08251953,-0.109375,-0.3178711
1290,0,0.1875,-0.875,-0.03076172,0.02294922,0.9829102,0.08251953,-0.109375,-0.3178711
1291,0.6875,0.3125,-0.5,-0.03857422,-0.01904297,0.9516602,0.09082031,-0.109375,-0.3168945
1293,0.75,-0.375,-0.75,-0.03076172,0.003417969,0.9594727,0.09082031,-0.109375,-0.3168945
1294,0.5625,0.0625,-0.9375,-0.03076172,-0.003417969,0.9829102,0.09082031,-0.109375,-0.3168945
1296,0,0.1875,-0.25,-0.05029297,0,0.9711914,0.09082031,-0.109375,-0.3168945
1297,0.4375,0.6875,-0.25,-0.02294922,0.003417969,0.9672852,0.09082031,-0.109375,-0.3168945
1299,0.3125,0.25,-0.5625,-0.03466797,-0.02294922,0.9516602,0.09082031,-0.109375,-0.3168945
1300,0.8125,-0.0625,-0.5625,-0.02294922,-0.007324219,0.9790039,0.09082031,-0.109375,-0.3168945
1302,0.5625,-0.125,0,-0.02294922,-0.01123047,0.9633789,0.09326172,-0.109375,-0.3266602
1303,0.25,0.0625,-0.625,-0.03076172,-0.01513672,0.9868164,0.09326172,-0.109375,-0.3266602
1305,0.5,0,-0.4375,-0.03466797,-0.003417969,0.9555664,0.09326172,-0.109375,-0.3266602
1306,-0.125,0.0625,-0.625,-0.02294922,-0.01513672,0.9672852,0.08984375,-0.112793,-0.3110352
1308,-0.125,0.3125,-0.3125,-0.03857422,0.01513672,0.9750977,0.08984375,-0.112793,-0.3110352
1309,0.125,-0.3125,-0.4375,-0.04248047,-0.003417969,0.9672852,0.08984375,-0.112793,-0.3110352
1311,-0.25,0.5,-0.4375,-0.03466797,0.01513672,0.9672852,0.08398438,-0.109375,-0.3276367
1312,0.1875,0.0625,-0.1875,-0.03857422,-0.007324219,0.9829102,0.08398438,-0.109375,-0.3276367
1314,0.375,-0.0625,-0.625,-0.03466797,-0.007324219,0.9829102,0.08398438,-0.109375,-0.3276367
1315,-0.0625,0,0,-0.03076172,0.003417969,0.9633789,0.08398438,-0.109375,-0.3276367
1317,0.0625,-0.3125,-0.4375,-0.04248047,0.007324219,0.9555664,0.08984375,-0.1108398,-0.3139648
1318,-0.0625,-0.5625,-0.0625,-0.03466797,0,0.9750977,0.08984375,-0.1108398,-0.3139648
1320,-0.25,-0.4375,-0.4375,-0.03857422,0,0.9946289,0.08984375,-0.1108398,-0.3139648
1321,-0.125,-0.4375,-0.4375,-0.03076172,0.01513672,0.9711914,0.08837891,-0.1118164,-0.3276367
1323,-0.125,-0.1875,-0.5,-0.03466797,-0.007324219,0.9829102,0.08837891,-0.1118164,-0.3276367
1324,0.1875,-0.0625,0,-0.02685547,0,0.9672852,0.08837891,-0.1118164,-0.3276367
1326,0.25,0.125,-0.0625,-0.03076172,-0.007324219,0.9594727,0.07910156,-0.1108398,-0.3168945
1327,0.5,0,0,-0.01513672,0.007324219,0.9985352,0.07910156,-0.1108398,-0.3168945
1329,0,-0.4375,-0.0625,-0.04248047,-0.003417969,0.9907227,0.07910156,-0.1108398,-0.3168945
1330,0.1875,-0.25,0.3125,-0.01513672,-0.003417969,0.9790039,0.07910156,-0.1108398,-0.3168945
1332,0.1875,-0.375,-0.5,-0.03076172,0.003417969,0.9672852,0.09179688,-0.112793,-0.3222656
1333,-0.3125,0.125,-0.125,-0.03076172,-0.003417969,0.9711914,0.09179688,-0.112793,-0.3222656
1335,0.375,-0.0625,0,-0.03076172,0,0.9790039,0.09179688,-0.112793,-0.3222656
1336,0.375,0.25,0,-0.02685547,0.007324219,0.9711914,0.0859375,-0.1025391,-0.3178711
1338,0.125,0,-0.25,-0.02685547,0.01513672,0.9829102,0.0859375,-0.1025391,-0.3178711
1339,0.1875,0,-0.5625,-0.01513672,-0.003417969,0.9594727,0.0859375,-0.1025391,-0.3178711
1341,0.3125,0.125,-0.5,-0.01904297,0,0.9555664,0.08154297,-0.112793,-0.3056641
1342,0.3125,0,-0.5,-0.04248047,0.01123047,0.9633789,0.08154297,-0.112793,-0.3056641
1344,0,-0.75,-0.375,-0.02294922,0.01513672,0.9829102,0.08154297,-0.112793,-0.3056641
1345,0.4375,-0.0625,-0.5625,-0.04248047,0.003417969,0.9829102,0.08154297,-0.112793,-0.3056641
1347,0.125,-0.25,-0.4375,-0.05029297,-0.01513672,0.9750977,0.08154297,-0.112793,-0.3056641
1348,0.1875,-0.25,-0.625,-0.04638672,0,0.9711914,0.08154297,-0.112793,-0.3056641
1350,-0.8125,-0.625,-0.5625,0.007324219,0.01513672,0.9829102,0.08154297,-0.112793,-0.3056641
1351,0.1875,0.125,0.0625,-0.03857422,-0.003417969,0.9711914,0.08837891,-0.1035156,-0.3154297
1353,0.0625,-0.4375,-0.1875,-0.03076172,0,0.9672852,0.08837891,-0.1035156,-0.3154297
1354,0.1875,-0.3125,-0.3125,-0.04248047,-0.01123047,1.005859,0.08837891,-0.1035156,-0.3154297
1356,0.125,-0.25,-0.1875,-0.03076172,0.003417969,0.9750977,0.08837891,-0.1108398,-0.3095703
1357,0.25,-0.1875,-0.4375,-0.04248047,0,0.9711914,0.08837891,-0.1108398,-0.3095703
1359,-0.1875,-0.6875,-0.4375,-0.03466797,0,0.9594727,0.08837891,-0.1108398,-0.3095703
1360,0.0625,-0.75,-0.25,-0.1166992,0,0.9672852,0.08837891,-0.1108398,-0.3095703
1362,0.0625,-0.375,-0.6875,-0.03857422,0.01123047,0.9555664,0.08837891,-0.1108398,-0.3095703
1364,0.25,0.3125,0,-0.04248047,0,0.9829102,0.08837891,-0.1108398,-0.3095703
1366,-0.125,0.375,-0.125,-0.01513672,0.003417969,0.9672852,0.08837891,-0.1108398,-0.3095703
1367,-0.0625,0.3125,-0.625,-0.01513672,-0.01123047,0.9516602,0.09423828,-0.1176758,-0.3193359
1369,0,0.3125,-0.1875,-0.03857422,-0.003417969,0.9555664,0.09423828,-0.1176758,-0.3193359
1370,0.25,0.125,-0.5625,-0.02685547,-0.007324219,0.9555664,0.09423828,-0.1176758,-0.3193359
1372,-0.3125,-0.5,0.0625,-0.01904297,-0.01513672,0.9633789,0.08984375,-0.1142578,-0.3154297
1373,0.5625,0,-0.125,-0.007324219,0.01123047,0.9790039,0.08984375,-0.1142578,-0.3154297
1375,0.5625,-0.125,0,-0.05029297,-0.003417969,0.9790039,0.08984375,-0.1142578,-0.3154297
1376,0.375,0.125,-0.8125,-0.03076172,-0.007324219,0.9711914,0.0859375,-0.109375,-0.3178711
1378,-0.125,0.5625,-0.1875,-0.03466797,-0.007324219,0.9594727,0.0859375,-0.109375,-0.3178711
1379,0,0.25,-0.0625,-0.03076172,0.01513672,0.9829102,0.0859375,-0.109375,-0.3178711
1381,-0.1875,-0.3125,-0.625,-0.02685547,0,1.005859,0.0859375,-0.109375,-0.3178711
1382,0.1875,-0.3125,-0.125,-0.04638672,0.003417969,0.9672852,0.08837891,-0.1108398,-0.3193359
1384,-0.0625,-0.125,0,-0.02685547,-0.007324219,0.9750977,0.08837891,-0.1108398,-0.3193359
1385,-0.0625,-0.1875,0,-0.02294922,0,0.9633789,0.08837891,-0.1108398,-0.3193359
1387,-0.375,0.1875,-0.5625,-0.03076172,0.01123047,0.9516602,0.08251953,-0.105957,-0.3168945
1388,0.6875,0.3125,-0.125,-0.02685547,0.007324219,0.9829102,0.08251953,-0.105957,-0.3168945
1390,0.1875,0.3125,-0.5625,-0.05029297,-0.003417969,0.9829102,0.08251953,-0.105957,-0.3168945
1391,0.25,0.6875,-0.125,-0.01513672,0,0.9829102,0.08007813,-0.1049805,-0.3168945
1393,-0.4375,-0.1875,-0.1875,-0.04248047,-0.02685547,0.9477539,0.08007813,-0.1049805,-0.3168945
1394,1,0.3125,-0.1875,-0.02294922,0,0.9750977,0.08007813,-0.1049805,-0.3168945
1396,0.25,0.125,-0.5,-0.03466797,0,0.9829102,0.08007813,-0.1049805,-0.3168945
1397,0,0.1875,-0.125,-0.01513672,0.003417969,0.9672852,0.08984375,-0.1142578,-0.3154297
1399,0.5625,0.4375,-0.4375,-0.01513672,-0.007324219,0.9672852,0.08984375,-0.1142578,-0.3154297
1400,0.5,-0.0625,0,-0.03466797,0.003417969,0.9829102,0.08984375,-0.1142578,-0.3154297
1402,0.25,0.1875,-0.25,-0.04638672,0.003417969,0.9711914,0.09667969,-0.1010742,-0.3110352
1403,0.4375,0,-0.1875,-0.02294922,-0.003417969,0.9711914,0.09667969,-0.1010742,-0.3110352
1405,0,-0.3125,-0.3125,-0.03466797,-0.003417969,0.9790039,0.09667969,-0.1010742,-0.3110352
1406,0.0625,0.5625,-0.0625,-0.03466797,0,0.9907227,0.09082031,-0.1049805,-0.3208008
1408,0,0.125,-0.8125,-0.03857422,0.003417969,0.9594727,0.09082031,-0.1049805,-0.3208008
1409,-0.0625,1,0.125,-0.03857422,0,0.9633789,0.09082031,-0.1049805,-0.3208008
1411,0.5625,0.4375,-0.1875,-0.03076172,0.007324219,0.9750977,0.09082031,-0.1049805,-0.3208008
1412,0.1875,0.1875,-0.6875,-0.03076172,-0.003417969,0.9829102,0.09082031,-0.1049805,-0.3208008
1414,0.4375,0.25,-0.125,-0.02685547,0.007324219,0.9711914,0.09082031,-0.1049805,-0.3208008
1415,0.1875,0.0625,-0.625,-0.02685547,-0.01123047,0.9907227,0.09082031,-0.1049805,-0.3208008
1417,0.25,0.4375,-0.375,-0.02685547,0,0.9516602,0.08837891,-0.1025391,-0.3193359
1418,0.1875,0.1875,0,-0.02685547,0.007324219,0.9633789,0.08837891,-0.1025391,-0.3193359
1420,0.5625,0,-0.125,-0.04638672,-0.007324219,0.9672852,0.08837891,-0.1025391,-0.3193359
1421,-0.375,0,-0.5,-0.03466797,-0.003417969,0.9829102,0.08496094,-0.1118164,-0.3193359
1423,0.5,0.3125,-0.1875,-0.03076172,-0.007324219,0.9829102,0.08496094,-0.1118164,-0.3193359
1424,-0.125,0.25,-0.6875,-0.02294922,0.02685547,0.9907227,0.08496094,-0.1118164,-0.3193359
1426,0.25,0.25,-0.4375,-0.04248047,-0.003417969,0.9711914,0.08496094,-0.1118164,-0.3193359
1427,0.125,0,-0.125,-0.02685547,-0.003417969,0.9907227,0.08496094,-0.1118164,-0.3193359
1429,0.4375,-0.4375,-0.1875,-0.01513672,0,0.9829102,0.08496094,-0.1118164,-0.3193359
1430,0.125,0.3125,-0.625,-0.03076172,0,0.9711914,0.08496094,-0.1118164,-0.3193359
1432,0.5,0.5,-0.125,-0.03857422,-0.003417969,0.9829102,0.0859375,-0.1083984,-0.3125
1433,0.1875,0.6875,-0.375,-0.05810547,-0.01513672,0.9555664,0.0859375,-0.1083984,-0.3125
1435,0.5625,0.1875,-0.1875,-0.01513672,-0.003417969,0.9829102,0.0859375,-0.1083984,-0.3125
1436,0.75,0.6875,-0.9375,-0.01123047,-0.007324219,0.9555664,0.08740234,-0.1083984,-0.3237305
1438,0.4375,0,-0.4375,-0.03076172,-0.01123047,0.9907227,0.08740234,-0.1083984,-0.3237305
1439,0.0625,0.25,-0.4375,-0.03076172,-0.003417969,0.9633789,0.08740234,-0.1083984,-0.3237305
1441,0.4375,0.125,-0.125,-0.04248047,0.01123047,0.9829102,0.08984375,-0.1083984,-0.3095703
1442,0.3125,-0.3125,-0.375,-0.05419922,0.02685547,0.9594727,0.08984375,-0.1083984,-0.3095703
1444,0.1875,0,-0.25,-0.02294922,0.01513672,0.9711914,0.08984375,-0.1083984,-0.3095703
1445,0.5625,0.125,-0.5,-0.03857422,0,0.9477539,0.08984375,-0.1083984,-0.3095703
1447,0.0625,-0.125,-0.1875,-0.04248047,0,0.9907227,0.08398438,-0.112793,-0.3193359
1448,-0.25,0.0625,-0.5625,-0.03076172,0.007324219,0.9750977,0.08398438,-0.112793,-0.3193359
1450,0.3125,0.25,-0.0625,-0.02294922,0.007324219,0.9829102,0.08398438,-0.112793,-0.3193359
1451,0.25,0.0625,-0.5625,-0.05029297,0,0.9750977,0.0859375,-0.1118164,-0.3154297
1453,0.25,-0.125,-0.6875,-0.03076172,0.01513672,0.9633789,0.0859375,-0.1118164,-0.3154297
1454,0.3125,0.25,-0.375,-0.03076172,0.007324219,0.9594727,0.0859375,-0.1118164,-0.3154297
1456,0.5625,0.3125,-0.6875,-0.03466797,0.003417969,0.9829102,0.08740234,-0.1118164,-0.3110352
1457,0,-0.0625,-0.625,-0.03466797,0,0.9672852,0.08740234,-0.1118164,-0.3110352
1459,0.5,-0.0625,-0.5625,-0.03857422,0,0.9907227,0.08740234,-0.1118164,-0.3110352
1461,0.125,0.6875,-0.3125,-0.02685547,0.003417969,0.9594727,0.08740234,-0.1118164,-0.3110352
1463,0.4375,-0.3125,-0.125,-0.03076172,-0.003417969,0.9672852,0.08984375,-0.112793,-0.3208008
1464,0.8125,-0.4375,-0.5625,-0.03466797,0.003417969,0.9633789,0.08984375,-0.112793,-0.3208008
1466,0.375,0.5,-0.5,-0.02685547,0.003417969,0.9633789,0.08984375,-0.112793,-0.3208008
1467,0.5625,-0.125,0,-0.03076172,0.01123047,0.9907227,0.08496094,-0.1152344,-0.3178711
1469,0,-0.75,-0.4375,-0.03076172,-0.003417969,0.9829102,0.08496094,-0.1152344,-0.3178711
1470,0.0625,0.125,-0.5625,-0.03076172,-0.003417969,0.9829102,0.08496094,-0.1152344,-0.3178711
1472,0,-0.3125,-0.375,-0.03466797,0.01513672,0.9477539,0.08398438,-0.112793,-0.3154297
1473,0.125,-0.375,-0.5,-0.03076172,0.01513672,0.9516602,0.08398438,-0.112793,-0.3154297
1475,0.125,-0.375,-0.5,-0.04248047,0,0.9750977,0.08398438,-0.112793,-0.3154297
1476,-0.375,-0.3125,0,-0.03466797,0.01123047,0.9868164,0.08398438,-0.112793,-0.3154297
1478,0.3125,0.1875,0,-0.03076172,0,0.9829102,0.08398438,-0.112793,-0.3154297
1479,0.375,-0.5,-0.75,-0.03466797,-0.003417969,0.9633789,0.08398438,-0.112793,-0.3154297
1481,-0.375,-0.25,0,-0.05029297,0,0.9633789,0.08398438,-0.112793,-0.3154297
1482,0.0625,-0.5,-0.1875,-0.04248047,0.003417969,0.9790039,0.09326172,-0.1186523,-0.3125
1484,0.4375,-0.25,-0.125,-0.03076172,0,0.9633789,0.09326172,-0.1186523,-0.3125
1485,0,-0.5,-0.125,-0.03076172,0,0.9555664,0.09326172,-0.1186523,-0.3125
1487,0,-0.625,-0.625,-0.03857422,0.01123047,0.9672852,0.08740234,-0.1108398,-0.3110352
1488,0.3125,-0.3125,-0.3125,-0.03076172,0.01123047,0.9868164,0.08740234,-0.1108398,-0.3110352
1490,-0.375,-0.25,-0.0625,-0.03466797,-0.02294922,0.9633789,0.08740234,-0.1108398,-0.3110352
1491,0,0.0625,-0.0625,-0.03076172,0.01513672,0.9633789,0.08740234,-0.1108398,-0.3110352
1493,0.1875,-0.4375,-0.1875,-0.04248047,0,0.9868164,0.08740234,-0.1108398,-0.3110352
1494,-0.125,-0.5625,0.25,-0.02685547,-0.003417969,0.9907227,0.08740234,-0.1108398,-0.3110352
1496,0,-0.8125,0.6875,-0.01513672,0,0.9711914,0.08740234,-0.1108398,-0.3110352
1497,-0.1875,-0.25,0.1875,-0.03076172,0.003417969,0.9594727,0.0859375,-0.1108398,-0.3154297
1499,0.4375,-0.4375,-0.5,-0.02685547,0.007324219,0.9829102,0.0859375,-0.1108398,-0.3154297
1500,0.25,0,0,-0.03466797,-0.003417969,0.9477539,0.0859375,-0.1108398,-0.3154297
1502,0,-0.625,-0.5,-0.01513672,-0.003417969,0.9868164,0.08007813,-0.109375,-0.3193359
1503,-0.0625,-0.8125,0,-0.03466797,0,0.9868164,0.08007813,-0.109375,-0.3193359
1505,0.375,0.25,-0.4375,-0.05029297,-0.003417969,0.9829102,0.08007813,-0.109375,-0.3193359
1506,-0.6875,-0.0625,0.25,-0.04248047,-0.01123047,0.9750977,0.09326172,-0.1152344,-0.3266602
1508,-0.0625,-0.1875,0,-0.03076172,0,0.9711914,0.09326172,-0.1152344,-0.3266602
1509,-0.125,0.0625,-0.0625,-0.01513672,-0.003417969,0.9672852,0.09326172,-0.1152344,-0.3266602
1511,0.125,-0.4375,-0.125,-0.02685547,0.007324219,0.9516602,0.09326172,-0.1152344,-0.3266602
1512,-0.125,-0.4375,-0.3125,-0.04248047,0.007324219,0.9829102,0.08496094,-0.1118164,-0.3193359
1514,0.5625,0,-0.125,-0.01513672,0.007324219,0.9985352,0.08496094,-0.1118164,-0.3193359
1515,-0.0625,0.5625,0,-0.01513672,0.01513672,0.9907227,0.08496094,-0.1118164,-0.3193359
1517,0.4375,-0.25,-0.125,-0.03466797,-0.003417969,0.9829102,0.08007813,-0.112793,-0.3168945
1518,-0.25,-0.1875,-0.5625,-0.04248047,0,0.9672852,0.08007813,-0.112793,-0.3168945
1520,0.0625,-0.4375,0.0625,-0.01513672,0.003417969,0.9829102,0.08007813,-0.112793,-0.3168945
1521,0.0625,-0.25,0,-0.05419922,0.01123047,0.9711914,0.0859375,-0.1083984,-0.3276367
1523,0.1875,0.1875,-0.25,-0.04638672,0,0.9829102,0.0859375,-0.1083984,-0.3276367
1524,0.0625,-0.125,-0.375,-0.03076172,-0.003417969,0.9711914,0.0859375,-0.1083984,-0.3276367
1526,-0.3125,-0.125,-0.375,-0.05419922,-0.01904297,0.9672852,0.0859375,-0.1083984,-0.3276367
1527,0.25,-0.3125,-0.5,-0.03466797,0,0.9829102,0.09326172,-0.1049805,-0.3237305
1529,0.25,0.25,-0.6875,-0.01123047,0,0.9829102,0.09326172,-0.1049805,-0.3237305
1530,0.125,0.125,-0.4375,-0.02294922,0,0.9711914,0.09326172,-0.1049805,-0.3237305
1532,-0.125,-0.1875,-0.125,-0.05029297,0.01513672,0.9633789,0.09326172,-0.1108398,-0.3154297
1533,0.1875,-0.1875,-0.625,-0.05029297,0.003417969,0.9829102,0.09326172,-0.1108398,-0.3154297
1535,0.6875,0.125,-0.4375,-0.03466797,0.01123047,0.9711914,0.09326172,-0.1108398,-0.3154297
1536,-0.0625,-0.125,-0.125,-0.02685547,0.007324219,0.9790039,0.09179688,-0.1069336,-0.3193359
1538,-0.125,0.125,0,-0.02685547,-0.007324219,0.9868164,0.09179688,-0.1069336,-0.3193359
1539,0.25,0,-0.4375,-0.02294922,0.01513672,0.9594727,0.09179688,-0.1069336,-0.3193359
1541,-0.125,-0.3125,-0.5,-0.01513672,-0.003417969,0.9633789,0.09179688,-0.1069336,-0.3193359
1542,0.125,0.125,-0.3125,-0.02685547,0.007324219,0.9790039,0.09179688,-0.1069336,-0.3193359
1544,-0.8125,-0.0625,-0.375,-0.03076172,-0.01123047,0.9711914,0.09179688,-0.1069336,-0.3193359
1545,0.3125,0.125,-0.3125,-0.01513672,-0.007324219,0.9829102,0.09179688,-0.1069336,-0.3193359
1547,0,-0.1875,-0.1875,-0.03076172,0,0.9711914,0.08740234,-0.112793,-0.3208008
1548,-0.3125,-0.375,-0.4375,-0.03857422,0.003417969,0.9790039,0.08740234,-0.112793,-0.3208008
1550,0.9375,-0.5,-0.5625,-0.03857422,0,0.9633789,0.08740234,-0.112793,-0.3208008
1551,0.5,-0.75,-0.125,-0.04638672,-0.007324219,0.9829102,0.08984375,-0.1108398,-0.3222656
1553,0.125,-0.3125,-1.0625,-0.03076172,-0.01123047,0.9594727,0.08984375,-0.1108398,-0.3222656
1554,-0.4375,-0.25,0.125,-0.03076172,0.003417969,0.9516602,0.08984375,-0.1108398,-0.3222656
1556,0.375,-0.0625,-0.5,-0.01904297,0.01123047,0.9633789,0.08984375,-0.1108398,-0.3222656
1559,0.6875,-0.375,-0.5,-0.03076172,0.01123047,0.9477539,0.08984375,-0.1108398,-0.3222656
1561,-0.375,0.3125,-0.375,-0.03076172,0.007324219,0.9868164,0.08984375,-0.1108398,-0.3222656
1562,0.25,-0.3125,-0.1875,-0.03857422,0.01123047,0.9750977,0.08984375,-0.1108398,-0.3222656
1564,0.0625,-0.25,-0.375,-0.05029297,-0.007324219,0.9633789,0.08984375,-0.109375,-0.3071289
1565,1.0625,-0.3125,0,-0.01513672,-0.01123047,0.9555664,0.08984375,-0.109375,-0.3071289
1567,0.5,0,-0.3125,-0.01513672,0.003417969,0.9594727,0.08984375,-0.109375,-0.3071289
1568,0.0625,0.0625,-0.3125,-0.02294922,-0.003417969,0.9985352,0.08496094,-0.1025391,-0.3168945
1570,0,-0.1875,-0.3125,-0.02685547,0.01123047,0.9711914,0.08496094,-0.1025391,-0.3168945
1571,-0.125,-0.25,-0.0625,-0.03857422,0.01904297,0.9750977,0.08496094,-0.1025391,-0.3168945
1573,0.25,0,-0.1875,-0.03076172,-0.007324219,0.9790039,0.08398438,-0.112793,-0.3251953
1574,0.1875,0.1875,-0.0625,-0.03076172,0.003417969,0.9672852,0.08398438,-0.112793,-0.3251953
1576,0.125,-0.1875,-0.9375,-0.007324219,-0.003417969,0.9555664,0.08398438,-0.112793,-0.3251953
1577,0,0.1875,0.1875,-0.02685547,0,0.9711914,0.08398438,-0.112793,-0.3251953
1579,0.375,0.25,0,-0.02685547,-0.003417969,0.9633789,0.08740234,-0.1118164,-0.3193359
1580,-0.125,-0.625,-0.3125,-0.03076172,-0.003417969,0.9711914,0.08740234,-0.1118164,-0.3193359
1582,0,0.375,-0.1875,-0.01904297,-0.003417969,0.9672852,0.08740234,-0.1118164,-0.3193359
1583,-0.3125,-0.125,-0.5,-0.05419922,0.01513672,0.9594727,0.07910156,-0.109375,-0.3208008
1585,0,-0.1875,-0.5625,-0.02685547,0.003417969,0.9829102,0.07910156,-0.109375,-0.3208008
1586,-0.125,0,-0.0625,-0.02685547,-0.003417969,0.9790039,0.07910156,-0.109375,-0.3208008
1588,-0.25,-0.0625,0.0625,-0.01123047,-0.003417969,0.9829102,0.08398438,-0.1118164,-0.3168945
1589,0,-0.25,-0.5,-0.04638672,0.003417969,0.9594727,0.08398438,-0.1118164,-0.3168945
1591,-0.25,-0.125,-0.3125,-0.01513672,0,0.9672852,0.08398438,-0.1118164,-0.3168945
1592,-0.125,-0.375,-0.1875,-0.03857422,0.003417969,0.9594727,0.08398438,-0.1118164,-0.3168945
1594,-0.3125,0.25,-0.1875,-0.03466797,0.003417969,0.9829102,0.08984375,-0.105957,-0.3222656
1595,0.1875,-0.1875,-0.4375,-0.04248047,0.003417969,0.9594727,0.08984375,-0.105957,-0.3222656
1597,-0.1875,-0.0625,0,-0.02685547,0.01123047,0.9672852,0.08984375,-0.105957,-0.3222656
1598,-0.3125,-0.0625,0,-0.01513672,-0.003417969,0.9555664,0.08398438,-0.1176758,-0.3168945
1600,-0.125,-0.4375,-0.25,-0.04248047,-0.003417969,0.9829102,0.08398438,-0.1176758,-0.3168945
1601,-0.1875,-0.3125,-0.375,-0.01123047,-0.003417969,0.9868164,0.08398438,-0.1176758,-0.3168945
1603,0,-0.125,-0.625,-0.04248047,0.003417969,0.9907227,0.09179688,-0.112793,-0.3178711
1604,0,0,-0.5,-0.03466797,-0.007324219,0.9594727,0.09179688,-0.112793,-0.3178711
1606,-0.125,0,0.0625,-0.01123047,-0.02294922,0.9829102,0.09179688,-0.112793,-0.3178711
1607,0,-0.5,-0.1875,-0.02685547,0,0.9750977,0.09179688,-0.112793,-0.3178711
1609,0.125,0.25,-0.4375,-0.03076172,0.003417969,0.9829102,0.09179688,-0.112793,-0.3178711
1610,0.25,-0.1875,0,-0.01904297,-0.007324219,0.9672852,0.09179688,-0.112793,-0.3178711
1612,0.125,-0.3125,-0.3125,-0.03857422,0.003417969,0.9594727,0.09179688,-0.112793,-0.3178711
1613,0.4375,-0.4375,-0.75,-0.03076172,-0.007324219,0.9633789,0.08251953,-0.1152344,-0.3110352
1615,0,-0.6875,-0.0625,-0.05419922,0.01513672,0.9633789,0.08251953,-0.1152344,-0.3110352
1616,-0.0625,-0.375,-0.5,-0.03857422,-0.01123047,0.9829102,0.08251953,-0.1152344,-0.3110352
1618,-0.1875,0,-0.25,-0.04638672,-0.007324219,0.9750977,0.08740234,-0.1083984,-0.3125
1619,0,0.1875,-0.125,-0.01513672,0.007324219,0.9672852,0.08740234,-0.1083984,-0.3125
1621,0,-0.1875,0.0625,-0.01904297,-0.01513672,0.9555664,0.08740234,-0.1083984,-0.3125
1622,0.5,0.25,0.25,-0.03466797,-0.003417969,0.9907227,0.08740234,-0.1083984,-0.3125
1624,0,0.125,-0.3125,-0.01904297,0.003417969,0.9907227,0.08740234,-0.1083984,-0.3125
1625,-0.0625,-0.375,-0.25,-0.02294922,0,0.9946289,0.08740234,-0.1083984,-0.3125
1627,0.4375,0,-0.0625,-0.01123047,0.007324219,0.9907227,0.08740234,-0.1083984,-0.3125
1628,0.75,0.125,-0.125,-0.03857422,0,0.9829102,0.08398438,-0.1118164,-0.3193359
1630,0.4375,0.3125,-0.5625,-0.01513672,0.007324219,0.9594727,0.08398438,-0.1118164,-0.3193359
1631,0.4375,0.3125,-0.4375,-0.03466797,0.003417969,0.9672852,0.08398438,-0.1118164,-0.3193359
1633,0.75,-0.25,-0.6875,-0.01513672,0.01123047,0.9477539,0.08984375,-0.112793,-0.3208008
1634,0.625,-0.25,-0.3125,-0.02294922,0.01513672,0.9633789,0.08984375,-0.112793,-0.3208008
1636,0.0625,-0.25,0,-0.02294922,0.007324219,0.9829102,0.08984375,-0.112793,-0.3208008
1637,0.6875,0.125,-0.6875,-0.03466797,-0.01904297,0.9829102,0.0859375,-0.1142578,-0.3178711
1639,0.1875,-0.4375,0,-0.03076172,-0.003417969,0.9633789,0.0859375,-0.1142578,-0.3178711
1640,0.5,-0.3125,-0.1875,-0.03466797,0,0.9829102,0.0859375,-0.1142578,-0.3178711
1642,-0.5625,0,-0.5,-0.01513672,0.003417969,0.9672852,0.0859375,-0.1142578,-0.3178711
1643,0.375,-0.6875,-0.125,-0.03857422,0.007324219,0.9829102,0.08398438,-0.109375,-0.3178711
1645,0.1875,-0.4375,-0.3125,-0.01904297,0,0.9672852,0.08398438,-0.109375,-0.3178711
1646,0.125,-0.125,-0.125,-0.02685547,0.003417969,0.9711914,0.08398438,-0.109375,-0.3178711
1648,-0.1875,-0.375,0,-0.01513672,0.007324219,0.9868164,0.08398438,-0.109375,-0.3208008
1649,0.625,-0.25,-0.5,-0.05810547,0.003417969,0.9868164,0.08398438,-0.109375,-0.3208008
1651,0.3125,0,-0.4375,-0.02294922,0.007324219,0.9907227,0.08398438,-0.109375,-0.3208008
1652,0,0.25,-0.5625,-0.01513672,-0.01123047,0.9711914,0.0859375,-0.109375,-0.3208008
1654,0.6875,0.125,-0.1875,-0.01513672,0.003417969,0.9594727,0.0859375,-0.109375,-0.3208008
1656,0.1875,0.25,-0.75,-0.02294922,-0.003417969,0.9829102,0.0859375,-0.109375,-0.3208008
1658,0.25,0.4375,-0.5,-0.02685547,-0.01513672,0.9868164,0.0859375,-0.109375,-0.3208008
1659,0.25,0.1875,-0.1875,-0.01123047,-0.003417969,0.9829102,0.08740234,-0.1142578,-0.3276367
1661,0.8125,0.5625,-0.5625,-0.01513672,0.007324219,0.9711914,0.08740234,-0.1142578,-0.3276367
1662,0.6875,0.25,-0.6875,-0.03076172,-0.003417969,0.9711914,0.08740234,-0.1142578,-0.3276367
1664,0.5625,0.75,-0.25,-0.01513672,-0.01123047,0.9594727,0.08251953,-0.1118164,-0.3154297
1665,0.625,0.125,-0.625,-0.05029297,0.007324219,0.9829102,0.08251953,-0.1118164,-0.3154297
1667,0,0.1875,-0.0625,-0.05029297,0.01513672,0.9829102,0.08251953,-0.1118164,-0.3154297
1668,0.5625,0.4375,-0.6875,0,-0.01123047,0.9829102,0.08496094,-0.1083984,-0.3139648
1670,0.4375,0.125,0.125,-0.03857422,0.01513672,0.9829102,0.08496094,-0.1083984,-0.3139648
1671,0.1875,0.3125,0,-0.03466797,0,0.9907227,0.08496094,-0.1083984,-0.3139648
1673,0.5,0.4375,-0.375,-0.04248047,-0.01123047,0.9711914,0.08496094,-0.1083984,-0.3139648
1674,0.0625,0.375,-0.4375,-0.02685547,-0.01123047,0.9829102,0.08496094,-0.1083984,-0.3139648
1676,0.1875,0.3125,-0.125,-0.01513672,0,0.9829102,0.08496094,-0.1083984,-0.3139648
1677,0.4375,-0.0625,-0.1875,-0.03857422,0.007324219,0.9829102,0.08496094,-0.1083984,-0.3139648
1679,0.5625,0.625,-0.5,-0.01513672,0.003417969,0.9711914,0.09179688,-0.1083984,-0.3125
1680,0.0625,0.125,0,-0.01123047,0.007324219,0.9633789,0.09179688,-0.1083984,-0.3125
1682,0.6875,0.375,-0.1875,-0.01513672,0.007324219,0.9829102,0.09179688,-0.1083984,-0.3125
1683,0.5,0.3125,-0.75,-0.01513672,-0.01123047,0.9555664,0.08154297,-0.1108398,-0.3222656
1685,0.125,0.5625,-0.25,-0.02685547,0.01513672,0.9868164,0.08154297,-0.1108398,-0.3222656
1686,0.8125,0.375,-0.3125,-0.03076172,-0.003417969,0.9829102,0.08154297,-0.1108398,-0.3222656
1688,0.125,0.3125,-0.6875,-0.03857422,-0.007324219,0.9633789,0.08154297,-0.1108398,-0.3222656
1689,0.3125,0.6875,-0.25,-0.02685547,0.003417969,0.9555664,0.08154297,-0.1108398,-0.3222656
1691,0.375,0.375,-0.625,-0.02294922,-0.003417969,0.9868164,0.08154297,-0.1108398,-0.3222656
1692,0.375,0.25,-0.375,-0.01513672,-0.007324219,0.9868164,0.08154297,-0.1108398,-0.3222656
1694,0.0625,-0.125,-0.25,-0.03466797,-0.007324219,0.9829102,0.08740234,-0.1108398,-0.3178711
1695,0.3125,0.0625,-0.375,-0.03857422,0.003417969,0.9672852,0.08740234,-0.1108398,-0.3178711
1697,0.125,0.1875,-0.625,-0.03466797,0.003417969,0.9672852,0.08740234,-0.1108398,-0.3178711
1698,0.125,0,-0.5,-0.04248047,0,0.9672852,0.09179688,-0.105957,-0.3139648
1700,-0.125,0.125,-0.375,-0.04248047,-0.007324219,0.9829102,0.09179688,-0.105957,-0.3139648
1701,-0.125,-0.4375,-0.5,-0.03857422,-0.01513672,0.9829102,0.09179688,-0.105957,-0.3139648
1703,0.25,-0.25,-0.375,-0.03857422,0.01513672,0.9594727,0.08496094,-0.1142578,-0.3139648
1704,0.4375,-0.4375,-0.6875,-0.01123047,0.003417969,0.9829102,0.08496094,-0.1142578,-0.3139648
1706,0.125,-0.125,-0.25,-0.02294922,0.01513672,0.9672852,0.08496094,-0.1142578,-0.3139648
1707,0.6875,0.1875,-0.3125,-0.03076172,0,0.9438477,0.08496094,-0.1142578,-0.3139648
1709,0.4375,0.125,-0.4375,-0.02294922,0,0.9790039,0.08740234,-0.1118164,-0.3178711
1710,0.375,0.375,-0.25,-0.03076172,-0.01513672,0.9868164,0.08740234,-0.1118164,-0.3178711
1712,0.125,0.375,-0.4375,-0.04248047,0.003417969,0.9477539,0.08740234,-0.1118164,-0.3178711
1713,0.3125,0.25,-0.5625,-0.03076172,-0.007324219,0.9829102,0.09082031,-0.1142578,-0.3193359
1715,0.875,0.25,-0.125,-0.02294922,0.01904297,0.9594727,0.09082031,-0.1142578,-0.3193359
1716,0.4375,0.4375,-0.625,-0.02685547,-0.007324219,0.9750977,0.09082031,-0.1142578,-0.3193359
1718,0.1875,0.375,-0.1875,-0.03076172,0.01123047,0.9946289,0.08251953,-0.1118164,-0.3168945
1719,0.6875,1.1875,-0.4375,-0.02294922,-0.007324219,0.9477539,0.08251953,-0.1118164,-0.3168945
1721,0.9375,0.4375,-0.5625,-0.05419922,0.01123047,0.9868164,0.08251953,-0.1118164,-0.3168945
1722,0.5,0.5,-0.1875,-0.01123047,0.01123047,0.9829102,0.08251953,-0.1118164,-0.3168945
1724,0.1875,0.6875,-0.25,-0.03076172,0.007324219,0.9829102,0.09179688,-0.1069336,-0.3193359
1725,-0.125,0.375,-0.375,-0.03857422,0.01123047,0.9829102,0.09179688,-0.1069336,-0.3193359
1727,-0.4375,0.125,-0.4375,-0.03076172,0,0.9633789,0.09179688,-0.1069336,-0.3193359
1728,-0.0625,0.375,-0.125,-0.04248047,0,0.9829102,0.09667969,-0.1118164,-0.3168945
1730,0.1875,0.5625,0,-0.01904297,0,0.9750977,0.09667969,-0.1118164,-0.3168945
1731,0.4375,0,-0.625,-0.04638672,0,0.9594727,0.09667969,-0.1118164,-0.3168945
1733,0.1875,0,-0.3125,0,0.01123047,0.9555664,0.08837891,-0.109375,-0.3193359
1734,0.5625,0,-0.125,-0.01513672,0,0.9985352,0.08837891,-0.109375,-0.3193359
1736,0.125,-0.0625,-0.625,-0.02294922,0.003417969,0.9829102,0.08837891,-0.109375,-0.3193359
1737,0.5,0.5,-0.625,-0.02685547,0.01123047,0.9829102,0.08837891,-0.109375,-0.3193359
1739,0.5,0.5,-0.5,-0.02294922,0.01123047,0.9711914,0.08837891,-0.109375,-0.3193359
1740,0.5,0.5,-0.5625,-0.02685547,-0.003417969,0.9672852,0.08837891,-0.109375,-0.3193359
1742,0.75,0,-0.4375,-0.03857422,0,0.9594727,0.08837891,-0.109375,-0.3193359
1743,0.1875,0.3125,-0.6875,-0.05029297,0.01123047,0.9790039,0.08740234,-0.1069336,-0.3125
1745,0.6875,0.1875,-0.4375,-0.04638672,0.01123047,0.9555664,0.08740234,-0.1069336,-0.3125
1746,0.1875,0.375,-0.5,-0.02685547,-0.01123047,0.9555664,0.08740234,-0.1069336,-0.3125
1748,0.6875,0.8125,-0.1875,-0.04248047,-0.007324219,0.9672852,0.08984375,-0.109375,-0.3081055
1749,0.625,-0.3125,-0.5,-0.04638672,-0.01513672,0.9672852,0.08984375,-0.109375,-0.3081055
1751,0.375,0.125,0.0625,-0.01904297,-0.003417969,0.9868164,0.08984375,-0.109375,-0.3081055
1753,0.75,0.375,-0.5,-0.03076172,0.01123047,0.9829102,0.08984375,-0.109375,-0.3081055
1755,0.0625,0.375,-0.0625,-0.01513672,0.003417969,0.9829102,0.08984375,-0.109375,-0.3081055
1756,-0.125,0.1875,-0.0625,-0.05810547,-0.003417969,0.9516602,0.08984375,-0.109375,-0.3081055
1758,0.125,0.375,-0.6875,-0.05419922,0.003417969,0.9672852,0.08984375,-0.109375,-0.3081055
1759,-0.25,0.5,0.125,-0.02685547,-0.003417969,0.9829102,0.09521484,-0.1049805,-0.3139648
1761,0.0625,-0.25,-0.125,-0.05810547,0.01513672,0.9829102,0.09521484,-0.1049805,-0.3139648
1762,0.4375,-0.125,-0.375,-0.03076172,-0.003417969,0.9711914,0.09521484,-0.1049805,-0.3139648
1764,0.4375,-0.1875,-0.1875,-0.03076172,-0.01123047,0.9907227,0.09326172,-0.1083984,-0.3139648
1765,-0.0625,0.5,-0.25,-0.04638672,0.003417969,0.9633789,0.09326172,-0.1083984,-0.3139648
1767,0.1875,0.1875,-0.625,-0.03076172,-0.007324219,0.9633789,0.09326172,-0.1083984,-0.3139648
1768,0.375,0,0,-0.03076172,-0.01123047,0.9555664,0.0859375,-0.1025391,-0.3168945
1770,0,-0.3125,-0.75,-0.03857422,0.01513672,0.9711914,0.0859375,-0.1025391,-0.3168945
1771,-0.1875,-0.1875,-0.375,-0.04248047,0,0.9633789,0.0859375,-0.1025391,-0.3168945
1773,0.4375,-0.0625,-0.6875,-0.02685547,0.007324219,0.9711914,0.0859375,-0.1025391,-0.3168945
1774,-0.125,-0.125,-0.125,-0.03466797,0.003417969,0.9829102,0.08398438,-0.1049805,-0.3193359
1776,0.1875,-0.3125,-0.125,-0.03857422,0.01123047,0.9711914,0.08398438,-0.1049805,-0.3193359
1777,0,0,-0.5,-0.03076172,0.02685547,0.9907227,0.08398438,-0.1049805,-0.3193359
1779,0.4375,0.125,-0.125,-0.01123047,0.007324219,0.9829102,0.09423828,-0.1142578,-0.3178711
1780,-0.4375,-0.1875,0.0625,-0.05029297,-0.007324219,0.9750977,0.09423828,-0.1142578,-0.3178711
1782,0.4375,0.0625,-0.6875,-0.01123047,-0.003417969,0.9633789,0.09423828,-0.1142578,-0.3178711
1783,-0.375,-0.0625,0,-0.05419922,0.01904297,0.9672852,0.08251953,-0.112793,-0.3139648
1785,0,-0.25,-0.6875,-0.03466797,0.01123047,0.9829102,0.08251953,-0.112793,-0.3139648
1786,0.375,0,-0.4375,-0.03076172,0,0.9829102,0.08251953,-0.112793,-0.3139648
1788,0,-0.0625,-0.5,-0.03466797,-0.003417969,0.9829102,0.08251953,-0.112793,-0.3139648
1789,0.5625,0.4375,-0.3125,-0.04248047,0.003417969,0.9711914,0.08837891,-0.1069336,-0.3154297
1791,0.625,0.125,-0.5625,-0.03466797,0,0.9750977,0.08837891,-0.1069336,-0.3154297
1792,0,0.75,-0.375,-0.04248047,-0.007324219,0.9516602,0.08837891,-0.1069336,-0.3154297
1794,0.3125,-0.25,-0.1875,-0.04248047,-0.007324219,0.9907227,0.08740234,-0.1069336,-0.3168945
1795,0.4375,0.6875,-0.6875,-0.04248047,-0.01123047,0.9985352,0.08740234,-0.1069336,-0.3168945
1797,0.1875,0.1875,-0.5,-0.03076172,0.003417969,0.9516602,0.08740234,-0.1069336,-0.3168945
1798,0.5,-0.25,-0.4375,-0.04638672,0.003417969,0.9868164,0.09082031,-0.1108398,-0.3125
1800,0.1875,0.375,-0.125,-0.03076172,-0.003417969,0.9672852,0.09082031,-0.1108398,-0.3125
1801,0,0.3125,-0.5,-0.05419922,-0.007324219,0.9750977,0.09082031,-0.1108398,-0.3125
1803,0.375,-0.25,0,-0.03466797,-0.003417969,0.9555664,0.09082031,-0.1108398,-0.3125
1804,0,-0.0625,-0.625,-0.01513672,0.007324219,0.9829102,0.09082031,-0.1108398,-0.3125
1806,0.1875,0.125,0.4375,-0.05029297,0.01904297,0.9672852,0.09082031,-0.1108398,-0.3125
1807,0.25,0.6875,-0.625,-0.04248047,-0.007324219,0.9672852,0.09082031,-0.1108398,-0.3125
1809,0.375,0.3125,-0.5625,-0.02294922,-0.007324219,0.9868164,0.09082031,-0.112793,-0.3237305
1810,0.5,-0.5,-0.5,-0.03076172,0,0.9633789,0.09082031,-0.112793,-0.3237305
1812,-0.1875,0.4375,-0.125,-0.03857422,0.01513672,0.9829102,0.09082031,-0.112793,-0.3237305
1813,0,0.125,0,-0.01513672,0.003417969,0.9594727,0.08740234,-0.1176758,-0.3168945
1815,-0.25,0.125,-0.125,-0.03076172,-0.003417969,0.9711914,0.08740234,-0.1176758,-0.3168945
1816,0.4375,0.1875,-0.375,-0.01513672,0,0.9555664,0.08740234,-0.1176758,-0.3168945
1818,0.125,0.3125,-0.1875,-0.02685547,-0.003417969,0.9633789,0.08740234,-0.1176758,-0.3168945
1819,0.1875,-0.375,0,-0.02685547,0.01513672,0.9633789,0.08740234,-0.1176758,-0.3168945
1821,0.0625,-0.375,0,-0.04248047,-0.003417969,0.9711914,0.08740234,-0.1176758,-0.3168945
1822,0.0625,-0.3125,-0.0625,-0.03857422,-0.007324219,0.9750977,0.08740234,-0.1176758,-0.3168945
1824,0.375,0,-0.1875,-0.04638672,0,0.9672852,0.08740234,-0.1118164,-0.3095703
1825,0.125,0,0.0625,-0.02685547,-0.003417969,0.9555664,0.08740234,-0.1118164,-0.3095703
1827,-0.375,0.125,-0.625,-0.03466797,0.02685547,0.9907227,0.08740234,-0.1118164,-0.3095703
1828,0.125,-0.4375,0,-0.01513672,0.01123047,0.9555664,0.09179688,-0.1118164,-0.3222656
1830,0.3125,0.3125,-0.1875,-0.03076172,0,0.9711914,0.09179688,-0.1118164,-0.3222656
1831,0,0.5625,-0.6875,-0.04248047,0,0.9829102,0.09179688,-0.1118164,-0.3222656
1833,0.4375,0.1875,-0.125,-0.03857422,-0.01123047,0.9633789,0.0859375,-0.1035156,-0.3081055
1834,-0.1875,-0.1875,-0.375,-0.04248047,0.007324219,0.9907227,0.0859375,-0.1035156,-0.3081055
1836,0,0.25,-0.1875,-0.03466797,-0.01513672,0.9633789,0.0859375,-0.1035156,-0.3081055
1837,0.25,-0.0625,-0.375,-0.01513672,0,0.9829102,0.0859375,-0.1035156,-0.3081055
1839,0.25,-0.4375,0.25,-0.03466797,0.01123047,1.001953,0.08154297,-0.1118164,-0.3193359
1840,0.9375,0.0625,-0.75,-0.03466797,-0.007324219,0.9672852,0.08154297,-0.1118164,-0.3193359
1842,0.3125,0.3125,-0.4375,-0.01513672,0.01513672,0.9711914,0.08154297,-0.1118164,-0.3193359
1843,0.25,0,0.0625,-0.05029297,0.003417969,0.9633789,0.08398438,-0.1152344,-0.3168945
1845,0.5,0,-0.25,-0.01513672,-0.003417969,0.9555664,0.08398438,-0.1152344,-0.3168945
1846,0.1875,0.3125,-0.125,-0.01513672,-0.003417969,0.9477539,0.08398438,-0.1152344,-0.3168945
1848,0,0.125,-0.25,-0.02685547,0.01513672,0.9829102,0.09082031,-0.1069336,-0.3154297
1850,0.375,0.4375,-0.5,-0.03857422,0,0.9829102,0.09082031,-0.1069336,-0.3154297
1852,0.6875,0.0625,-0.5625,-0.03466797,-0.007324219,0.9672852,0.09082031,-0.1069336,-0.3154297
1853,0.1875,0.25,-0.3125,-0.03857422,0.01123047,0.9868164,0.09082031,-0.1069336,-0.3154297
1855,1.0625,0.4375,0,-0.03076172,-0.003417969,0.9360352,0.08984375,-0.109375,-0.3251953
1856,0.4375,0.125,-0.625,-0.04638672,-0.003417969,0.9750977,0.08984375,-0.109375,-0.3251953
1858,1.1875,0.1875,-0.5,-0.03076172,-0.003417969,0.9594727,0.08984375,-0.109375,-0.3251953
1859,0.625,-0.375,-0.5,-0.03857422,-0.01513672,0.9711914,0.09326172,-0.1118164,-0.3222656
1861,0.875,0.25,-0.5,-0.05029297,0.007324219,0.9750977,0.09326172,-0.1118164,-0.3222656
1862,0.5,0.3125,-0.375,-0.02294922,0.01513672,0.9711914,0.09326172,-0.1118164,-0.3222656
1864,0.375,0.6875,-0.5,-0.05810547,0.01123047,0.9907227,0.09667969,-0.1142578,-0.3237305
1865,0,0.3125,-0.75,-0.03466797,0.01123047,0.9633789,0.09667969,-0.1142578,-0.3237305
1867,0.25,-0.3125,-0.1875,-0.02685547,-0.003417969,0.9829102,0.09667969,-0.1142578,-0.3237305
1868,-0.1875,-0.125,0,-0.01123047,0,0.9321289,0.09667969,-0.1142578,-0.3237305
1870,0.1875,-0.25,0,-0.05029297,0.007324219,0.9829102,0.09667969,-0.1142578,-0.3237305
1871,0.4375,-0.375,0.0625,-0.01513672,0.01123047,0.9868164,0.09667969,-0.1142578,-0.3237305
1873,0,-0.125,-0.25,-0.05029297,0,0.9672852,0.09667969,-0.1142578,-0.3237305
1874,0.1875,0,0,-0.03466797,0,0.9672852,0.09179688,-0.1049805,-0.3095703
1876,-0.25,0.25,-0.5625,-0.03857422,-0.01513672,0.9829102,0.09179688,-0.1049805,-0.3095703
1877,0,-0.25,-0.1875,-0.03857422,0.007324219,0.9711914,0.09179688,-0.1049805,-0.3095703
1879,0.3125,0.4375,-0.3125,-0.03466797,0.02685547,0.9829102,0.08984375,-0.1083984,-0.3193359
1880,-0.0625,0.0625,-0.4375,-0.03857422,0.007324219,0.9711914,0.08984375,-0.1083984,-0.3193359
1882,0,0.1875,-0.25,-0.03857422,0.01123047,0.9750977,0.08984375,-0.1083984,-0.3193359
1883,0.25,0.6875,-0.625,-0.02685547,0.01123047,0.9711914,0.08984375,-0.1083984,-0.3193359
1885,-0.375,-0.125,-0.1875,-0.04248047,0.01513672,0.9829102,0.08984375,-0.1083984,-0.3193359
1886,0.75,-0.25,-0.5,-0.04248047,-0.01513672,0.9672852,0.08984375,-0.1083984,-0.3193359
1888,-0.125,-0.0625,-0.5,-0.03076172,-0.003417969,0.9672852,0.08984375,-0.1083984,-0.3193359
1889,0.4375,-0.3125,-0.4375,-0.05029297,0,0.9829102,0.08984375,-0.1083984,-0.3095703
1891,-0.4375,0.25,-0.1875,-0.04248047,0,0.9594727,0.08984375,-0.1083984,-0.3095703
1892,0.3125,0.1875,0,-0.01513672,0.003417969,0.9633789,0.08984375,-0.1083984,-0.3095703
1894,0.375,0,-0.0625,-0.04638672,0,0.9868164,0.08740234,-0.1108398,-0.3168945
1895,0.4375,0.5,-0.25,-0.03076172,0,0.9829102,0.08740234,-0.1108398,-0.3168945
1897,0.75,-0.0625,-0.0625,-0.04638672,0,0.9633789,0.08740234,-0.1108398,-0.3168945
1898,0,0.6875,-0.1875,-0.03857422,0.003417969,0.9985352,0.0859375,-0.112793,-0.3154297
1900,0.25,-0.25,-0.4375,-0.03857422,0.003417969,0.9477539,0.0859375,-0.112793,-0.3154297
1901,0.75,0.3125,-0.4375,-0.03466797,0,0.9672852,0.0859375,-0.112793,-0.3154297
1903,-0.1875,0.0625,-0.375,-0.01123047,-0.003417969,0.9985352,0.0859375,-0.112793,-0.3154297
1904,0.8125,0.25,0.0625,-0.01513672,0,0.9868164,0.09179688,-0.1162109,-0.3154297
1906,-0.0625,0.25,-0.1875,-0.04248047,-0.007324219,0.9711914,0.09179688,-0.1162109,-0.3154297
1907,0.625,-0.25,-0.25,-0.02685547,0,0.9633789,0.09179688,-0.1162109,-0.3154297
1909,0.5,0.25,-0.4375,-0.04248047,0.01513672,0.9633789,0.08496094,-0.1083984,-0.3168945
1910,-0.1875,-0.1875,-0.1875,-0.05029297,-0.003417969,0.9633789,0.08496094,-0.1083984,-0.3168945
1912,0.5625,-0.1875,-0.8125,-0.03857422,-0.01123047,0.9633789,0.08496094,-0.1083984,-0.3168945
1913,0.375,0.25,-0.4375,-0.05029297,0.003417969,0.9594727,0.08740234,-0.1118164,-0.3168945
1915,0.1875,0.0625,-0.5625,-0.03076172,0.01513672,0.9711914,0.08740234,-0.1118164,-0.3168945
1916,0.3125,-0.0625,-0.5,-0.03076172,-0.007324219,0.9672852,0.08740234,-0.1118164,-0.3168945
1918,0.5625,0.4375,-0.125,-0.03076172,0,0.9790039,0.08740234,-0.1118164,-0.3168945
1919,0.625,0.125,-0.1875,-0.04248047,0,0.9750977,0.08984375,-0.1069336,-0.3208008
1921,-0.25,0.1875,-1,-0.02685547,0.02685547,0.9555664,0.08984375,-0.1069336,-0.3208008
1922,0.8125,0.25,-0.4375,-0.02685547,0.003417969,0.9829102,0.08984375,-0.1069336,-0.3208008
1924,0.25,0.1875,-0.1875,-0.01123047,0.01123047,0.9946289,0.08496094,-0.1083984,-0.3168945
1925,0.375,0.4375,-0.5625,-0.03076172,0.003417969,0.9750977,0.08496094,-0.1083984,-0.3168945
1927,0,0.0625,-0.1875,-0.03857422,0,0.9633789,0.08496094,-0.1083984,-0.3168945
1928,0.3125,0.75,-0.0625,-0.03076172,0.01513672,0.9672852,0.09326172,-0.105957,-0.3193359
1930,0.6875,0.625,-0.8125,-0.03857422,0.003417969,0.9672852,0.09326172,-0.105957,-0.3193359
1931,0.5625,0,-0.5,-0.03466797,0.003417969,0.9829102,0.09326172,-0.105957,-0.3193359
1933,0.1875,0,-0.5,-0.04248047,0.003417969,0.9868164,0.09326172,-0.105957,-0.3193359
1934,0.5625,0.375,-0.625,-0.03076172,-0.003417969,0.9711914,0.09326172,-0.105957,-0.3193359
1936,0.25,1,-0.3125,-0.03857422,0,0.9594727,0.09326172,-0.105957,-0.3193359
1937,-0.25,0.3125,-0.3125,-0.03076172,0.007324219,0.9477539,0.09326172,-0.105957,-0.3193359
1939,0.25,0.375,-0.4375,-0.03857422,0,0.9672852,0.08740234,-0.112793,-0.3154297
1940,0.125,0.125,-0.0625,-0.01513672,0,0.9829102,0.08740234,-0.112793,-0.3154297
1942,0.1875,-0.1875,-0.6875,-0.02685547,-0.003417969,0.9868164,0.08740234,-0.112793,-0.3154297
1943,0.5,-0.1875,-0.75,-0.03857422,0.01904297,0.9672852,0.08740234,-0.1108398,-0.3125
1945,0.4375,-0.125,-0.125,-0.05419922,0.007324219,0.9672852,0.08740234,-0.1108398,-0.3125
1948,-0.1875,0.3125,-0.5625,-0.02685547,0.01513672,0.9672852,0.08740234,-0.1108398,-0.3125
1950,0,0.4375,-0.25,-0.05419922,0,0.9829102,0.08740234,-0.1108398,-0.3125
1951,-0.125,-0.1875,-0.1875,-0.03466797,0.003417969,0.9672852,0.08740234,-0.1108398,-0.3125
1953,0,-0.0625,0,-0.03857422,0.003417969,0.9438477,0.08740234,-0.1108398,-0.3125
1954,0.375,0.1875,0,-0.05029297,0.007324219,0.9633789,0.08740234,-0.1108398,-0.3125
1956,-0.125,-0.0625,-0.1875,-0.03857422,-0.007324219,0.9946289,0.09912109,-0.112793,-0.3168945
1957,-0.25,-0.375,0,-0.01904297,0.01513672,0.9672852,0.09912109,-0.112793,-0.3168945
1959,0,-0.1875,-0.0625,-0.04248047,-0.01513672,0.9633789,0.09912109,-0.112793,-0.3168945
1960,-0.375,-0.1875,0,-0.04248047,-0.01123047,0.9750977,0.08740234,-0.1118164,-0.3154297
1962,0,-0.3125,-0.4375,-0.02685547,0.01513672,0.9711914,0.08740234,-0.1118164,-0.3154297
1963,0,-0.0625,-0.125,-0.03857422,0,0.9555664,0.08740234,-0.1118164,-0.3154297
1965,-0.0625,-0.125,0.0625,-0.02685547,0.01123047,0.9711914,0.08984375,-0.1118164,-0.3168945
1966,0,-0.1875,0.0625,-0.03076172,0.007324219,0.9555664,0.08984375,-0.1118164,-0.3168945
1968,0.1875,-0.3125,-0.5625,-0.02685547,-0.003417969,0.9829102,0.08984375,-0.1118164,-0.3168945
1969,0.375,0.0625,-0.25,-0.04638672,0,0.9672852,0.08984375,-0.1118164,-0.3168945
1971,-0.125,-0.25,-0.25,-0.05419922,0.003417969,0.9672852,0.08007813,-0.1142578,-0.3222656
1972,0.375,-0.4375,-0.1875,-0.01513672,0.01513672,0.9750977,0.08007813,-0.1142578,-0.3222656
1974,0,-0.8125,-0.375,-0.02685547,0.007324219,0.9868164,0.08007813,-0.1142578,-0.3222656
1975,-0.25,0.1875,-0.5625,-0.04248047,-0.007324219,0.9633789,0.08398438,-0.105957,-0.3095703
1977,-0.25,-0.1875,-0.5625,-0.04248047,-0.01123047,0.9750977,0.08398438,-0.105957,-0.3095703
1978,-0.125,-0.4375,-0.625,-0.03076172,0,0.9594727,0.08398438,-0.105957,-0.3095703
1980,0.25,-0.1875,-0.375,-0.03076172,-0.01904297,0.9633789,0.08837891,-0.1142578,-0.3168945
1981,-0.3125,-0.125,0.0625,-0.03076172,0.007324219,0.9750977,0.08837891,-0.1142578,-0.3168945
1983,0.25,-0.375,-0.0625,-0.03076172,0,0.9672852,0.08837891,-0.1142578,-0.3168945
1984,0.1875,0.0625,-0.625,-0.03466797,0.007324219,0.9829102,0.08837891,-0.1142578,-0.3168945
1986,0.125,-0.25,0,-0.03857422,0.007324219,0.9633789,0.08837891,-0.1118164,-0.3125
1987,-0.25,0.0625,-0.25,-0.03466797,0.003417969,0.9907227,0.08837891,-0.1118164,-0.3125
1989,1.125,-0.75,-0.3125,-0.03857422,0.01123047,0.9868164,0.08837891,-0.1118164,-0.3125
1990,0.5625,-0.125,-0.5,-0.03076172,-0.003417969,0.9829102,0.09326172,-0.1142578,-0.3168945
1992,0.125,-0.1875,-0.75,-0.03857422,0.01513672,0.9711914,0.09326172,-0.1142578,-0.3168945
1993,0.3125,0,-0.375,-0.03466797,0,0.9868164,0.09326172,-0.1142578,-0.3168945
1995,0,0.375,-0.625,-0.04248047,0,0.9594727,0.09082031,-0.109375,-0.3251953
1996,0.3125,-0.1875,-0.375,-0.02685547,0,0.9750977,0.09082031,-0.109375,-0.3251953
1998,0.25,0.3125,0,-0.01513672,-0.01123047,1.005859,0.09082031,-0.109375,-0.3251953
1999,0.0625,-0.25,-0.375,-0.04248047,0,0.9672852,0.09082031,-0.109375,-0.3251953
2001,0,-0.25,-0.3125,-0.04638672,-0.003417969,0.9594727,0.09082031,-0.109375,-0.3251953
2002,0.25,-0.3125,-0.25,-0.02685547,-0.007324219,0.9633789,0.09082031,-0.109375,-0.3251953
2004,-0.125,0,-0.5,-0.05029297,0.003417969,0.9868164,0.09082031,-0.109375,-0.3251953
2005,0.5,0,-0.1875,-0.03857422,0.007324219,0.9438477,0.08740234,-0.1142578,-0.3193359
2007,-0.125,0,0.125,-0.03857422,0.003417969,0.9633789,0.08740234,-0.1142578,-0.3193359
2008,0.0625,-0.1875,-0.625,-0.04248047,0.003417969,0.9477539,0.08740234,-0.1142578,-0.3193359
2010,0,-0.9375,-0.5625,-0.03076172,-0.01123047,0.9633789,0.08984375,-0.1176758,-0.3193359
2011,-0.1875,-0.25,-0.3125,-0.02294922,-0.007324219,0.9829102,0.08984375,-0.1176758,-0.3193359
2013,0.6875,-0.0625,-0.4375,-0.04248047,-0.01513672,0.9438477,0.08984375,-0.1176758,-0.3193359
2014,0.5,-0.0625,-0.125,-0.02685547,0.003417969,0.9711914,0.08984375,-0.1176758,-0.3193359
2016,0.3125,0.125,-0.625,-0.04248047,-0.01123047,0.9750977,0.08984375,-0.1176758,-0.3193359
2017,-0.0625,-0.3125,-0.75,-0.04638672,-0.01123047,0.9829102,0.08984375,-0.1176758,-0.3193359
2019,0.0625,0.0625,-0.1875,-0.03466797,-0.01513672,0.9750977,0.08984375,-0.1176758,-0.3193359
2020,0.5,0.0625,-0.5625,-0.03466797,-0.003417969,0.9907227,0.08496094,-0.1142578,-0.3154297
2022,0.25,0,-0.75,-0.02685547,0.01513672,0.9750977,0.08496094,-0.1142578,-0.3154297
2023,-0.1875,-0.3125,-0.4375,-0.02685547,-0.01904297,0.9868164,0.08496094,-0.1142578,-0.3154297
2025,0.625,0,-0.3125,-0.01904297,0,0.9711914,0.09326172,-0.1176758,-0.3222656
2026,0.3125,0,0.1875,-0.05029297,0.01123047,0.9907227,0.09326172,-0.1176758,-0.3222656
2028,0.5625,-0.875,-0.3125,-0.03076172,0,0.9711914,0.09326172,-0.1176758,-0.3222656
2029,0.4375,-0.1875,0,-0.03076172,-0.003417969,0.9790039,0.09179688,-0.112793,-0.3139648
2031,-0.125,-0.0625,-0.0625,-0.03466797,-0.01123047,0.9868164,0.09179688,-0.112793,-0.3139648
2032,0.3125,-0.8125,-0.375,-0.04248047,-0.007324219,0.9829102,0.09179688,-0.112793,-0.3139648
2034,0.25,-0.25,-0.1875,-0.03076172,0.007324219,0.9829102,0.09179688,-0.112793,-0.3139648
2035,0,-0.0625,0,-0.03076172,0.01123047,0.9829102,0.078125,-0.1118164,-0.3208008
2037,0.625,-0.875,-0.1875,-0.03857422,-0.003417969,0.9555664,0.078125,-0.1118164,-0.3208008
2038,0,-0.375,-0.4375,-0.03466797,0.007324219,0.9750977,0.078125,-0.1118164,-0.3208008
2040,-0.25,0.1875,-0.1875,-0.03466797,0.003417969,0.9282227,0.0859375,-0.1083984,-0.3095703
2041,0.4375,-0.5625,-0.1875,-0.02294922,0,0.9672852,0.0859375,-0.1083984,-0.3095703
2043,0.25,0.25,-0.0625,-0.05810547,0.01123047,0.9868164,0.0859375,-0.1083984,-0.3095703
2045,0.3125,0,-0.375,-0.03076172,0.003417969,0.9633789,0.07910156,-0.1142578,-0.3139648
2047,0.5625,0.125,-0.4375,-0.02685547,-0.007324219,0.9633789,0.07910156,-0.1142578,-0.3139648
2048,-0.0625,0,-0.375,-0.05419922,-0.01513672,0.9829102,0.07910156,-0.1142578,-0.3139648
2050,0.6875,-0.3125,-0.5625,-0.03466797,-0.007324219,0.9672852,0.07910156,-0.1142578,-0.3139648
2051,0.1875,0.4375,-0.3125,-0.03466797,0.007324219,0.9672852,0.08398438,-0.112793,-0.3237305
2053,0.6875,0.375,-0.5,-0.04638672,0.01904297,0.9868164,0.08398438,-0.112793,-0.3237305
2054,0.875,-0.4375,-0.25,-0.02685547,-0.007324219,0.9633789,0.08398438,-0.112793,-0.3237305
2056,0.5,-0.375,-0.3125,-0.05029297,0,0.9750977,0.09521484,-0.1142578,-0.3125
2057,0.75,0.1875,0.0625,-0.02685547,0.01123047,0.9907227,0.09521484,-0.1142578,-0.3125
2059,-0.375,0.875,-0.3125,-0.03857422,0.01123047,0.9868164,0.09521484,-0.1142578,-0.3125
2060,0,-0.25,-0.125,-0.05029297,-0.007324219,0.9829102,0.09082031,-0.1142578,-0.3222656
2062,0.5625,-0.125,-0.0625,-0.03857422,0.003417969,0.9829102,0.09082031,-0.1142578,-0.3222656
2063,0.375,-0.125,-0.5,-0.01513672,-0.003417969,0.9829102,0.09082031,-0.1142578,-0.3222656
2065,0.3125,-0.375,-0.375,-0.04638672,0.003417969,0.9907227,0.09082031,-0.1142578,-0.3222656
2066,-0.375,-0.0625,0,-0.04248047,0.003417969,0.9594727,0.09082031,-0.1142578,-0.3222656
2068,-0.0625,-0.4375,-0.4375,-0.03857422,0.007324219,0.9672852,0.09082031,-0.1142578,-0.3222656
2069,0.125,-0.25,-0.5,-0.05419922,0.01123047,0.9750977,0.09082031,-0.1142578,-0.3222656
