Gyroscope X (deg/s),Gyroscope Y (deg/s),Gyroscope Z (deg/s),Accelerometer X (g),Accelerometer Y (g),Accelerometer Z (g),Magnetometer X (G),Magnetometer Y (G),Magnetometer Z (G)
-0.1875,-0.1875,0.1875,-0.05419922,0.01123047,0.9868164,0.09326172,-0.109375,-0.3081055
-0.1875,-0.1875,0.1875,-0.05419922,0.01123047,0.9868164,0.09326172,-0.109375,-0.3081055
-0.1875,-0.8125,0.6875,-0.04248047,0.003417969,0.9868164,0.1000977,-0.1142578,-0.3095703
-0.4375,-0.5,0.0625,-0.03857422,-0.003417969,0.9633789,0.1000977,-0.1142578,-0.3095703
-0.1875,-0.875,0.1875,-0.03466797,0.007324219,0.9790039,0.1000977,-0.1142578,-0.3095703
-0.8125,-0.0625,0.1875,-0.04248047,0.01513672,0.9594727,0.08837891,-0.112793,-0.3193359
-0.75,0.125,0.6875,-0.02685547,0.01513672,0.9672852,0.08837891,-0.112793,-0.3193359
-0.1875,-0.3125,0.125,-0.04248047,0.02685547,0.9672852,0.08837891,-0.112793,-0.3193359
-0.125,-0.375,0.375,-0.01123047,0.007324219,0.9711914,0.08984375,-0.105957,-0.3139648
0,-0.4375,-0.375,-0.01513672,-0.003417969,0.9829102,0.08984375,-0.105957,-0.3139648
-0.375,-0.1875,0,-0.03857422,0.01513672,0.9633789,0.08984375,-0.105957,-0.3139648
-0.4375,-0.3125,-0.5,-0.04248047,0.01904297,0.9672852,0.09667969,-0.1025391,-0.3081055
-0.5625,0.125,0,-0.04248047,0.02685547,0.9829102,0.09667969,-0.1025391,-0.3081055
-0.875,-0.25,0.0625,-0.06201172,0.007324219,0.9711914,0.09667969,-0.1025391,-0.3081055
-1.1875,-0.4375,0.1875,-0.03857422,0.01513672,0.9672852,0.09667969,-0.1025391,-0.3081055
-1.6875,-0.375,0.125,-0.03076172,0.007324219,0.9750977,0.09667969,-0.1025391,-0.3081055
-1,-0.5625,0.0625,-0.03076172,0.003417969,0.9750977,0.09667969,-0.1025391,-0.3081055
-1.375,-0.6875,0,-0.04248047,0.02685547,0.9594727,0.09667969,-0.1025391,-0.3081055
-1.0625,-0.6875,0.5,-0.01904297,0,0.9594727,0.09082031,-0.112793,-0.3110352
-0.8125,-0.3125,0.1875,-0.02685547,-0.003417969,0.9829102,0.09082031,-0.112793,-0.3110352
-1.4375,-0.0625,1.25,-0.03857422,0.01513672,0.9829102,0.09082031,-0.112793,-0.3110352
-0.9375,-0.5,0.1875,-0.05029297,0.01123047,0.9594727,0.08837891,-0.1069336,-0.3095703
-1.3125,-0.3125,0.75,-0.05419922,-0.007324219,0.9829102,0.08837891,-0.1069336,-0.3095703
-1.375,-0.25,0.875,-0.01513672,0.007324219,0.9829102,0.08837891,-0.1069336,-0.3095703
-1.75,-0.3125,0.9375,-0.03466797,0.01123047,0.9672852,0.08837891,-0.1069336,-0.3095703
-1.875,-0.4375,1.4375,-0.05029297,-0.003417969,0.9829102,0.08837891,-0.1069336,-0.3095703
-2.0625,-0.75,1.375,-0.02685547,0.007324219,0.9829102,0.08837891,-0.1069336,-0.3095703
-2.3125,-0.5,1.375,-0.04248047,0.01513672,0.9672852,0.08837891,-0.1069336,-0.3095703
-2.5,-0.4375,1.6875,-0.03857422,0.01513672,0.9672852,0.08398438,-0.1118164,-0.3027344
-2.5625,0.0625,1.9375,-0.05419922,-0.003417969,0.9750977,0.08398438,-0.1118164,-0.3027344
-2.75,-0.3125,1.875,-0.02685547,0.003417969,0.9672852,0.08398438,-0.1118164,-0.3027344
-1.75,1.0625,1.75,-0.03466797,-0.003417969,0.9516602,0.09326172,-0.105957,-0.3139648
-1.875,0.8125,1.9375,-0.03466797,0.007324219,0.9711914,0.09326172,-0.105957,-0.3139648
-1.625,0.25,1.3125,-0.06591797,0.03076172,0.9516602,0.09326172,-0.105957,-0.3139648
-2.1875,-0.0625,1.5625,-0.03857422,0.02294922,0.9750977,0.09423828,-0.1118164,-0.3178711
-1.75,0.5625,1.75,-0.003417969,0,0.9516602,0.09423828,-0.1118164,-0.3178711
-2.3125,0.375,1.5625,-0.007324219,0.003417969,0.9829102,0.09423828,-0.1118164,-0.3178711
-1.9375,0.75,1.4375,-0.05029297,0.01123047,0.9790039,0.09423828,-0.1118164,-0.3178711
-1.5,0.4375,1.3125,-0.05419922,0.003417969,0.9790039,0.09179688,-0.109375,-0.3056641
-1,1,1.125,-0.03076172,-0.003417969,0.9555664,0.09179688,-0.109375,-0.3056641
-0.875,1.5,1.1875,-0.02685547,0,0.9672852,0.09179688,-0.109375,-0.3056641
-0.375,1.4375,0.9375,-0.03076172,0,0.9829102,0.08837891,-0.1142578,-0.3237305
0.0625,1.5,0.8125,-0.01513672,0.007324219,0.9516602,0.08837891,-0.1142578,-0.3237305
0,1.9375,0.6875,-0.03076172,-0.01513672,0.9672852,0.08837891,-0.1142578,-0.3237305
1.1875,1.5625,0.5625,-0.03857422,0.02685547,0.9477539,0.09082031,-0.1108398,-0.3193359
0.875,2,0.3125,-0.02685547,0.007324219,0.9868164,0.09082031,-0.1108398,-0.3193359
0.9375,1.625,0.3125,-0.03466797,0.007324219,0.9555664,0.09082031,-0.1108398,-0.3193359
1.25,1.9375,0.5,-0.03857422,0.003417969,0.9672852,0.09082031,-0.1108398,-0.3193359
0.75,2.0625,0,-0.04248047,0,0.9555664,0.08984375,-0.1108398,-0.3178711
0.125,1.375,0.1875,-0.06591797,0.01123047,0.9907227,0.08984375,-0.1108398,-0.3178711
0.25,1.25,0.375,-0.05419922,0.01123047,0.9477539,0.08984375,-0.1108398,-0.3178711
0.25,1.25,0.125,-0.03466797,0.003417969,0.9829102,0.09667969,-0.1142578,-0.3081055
-0.0625,1.0625,0.6875,-0.05029297,-0.01513672,0.9868164,0.09667969,-0.1142578,-0.3081055
0.3125,0.6875,0.6875,-0.05029297,-0.007324219,0.9633789,0.09667969,-0.1142578,-0.3081055
-0.25,1,0.75,-0.02685547,-0.003417969,0.9868164,0.08837891,-0.112793,-0.3110352
-0.5,0.5625,0.6875,-0.02685547,-0.01513672,0.9829102,0.08837891,-0.112793,-0.3110352
-0.4375,0.75,0.375,-0.05419922,0.007324219,0.9750977,0.08837891,-0.112793,-0.3110352
-0.25,0.125,0.625,-0.05029297,0.01513672,0.9594727,0.08837891,-0.112793,-0.3110352
0.25,0.5625,1.25,-0.03076172,0.01513672,0.9750977,0.08837891,-0.112793,-0.3110352
-0.0625,0.875,0.375,-0.04248047,-0.007324219,0.9555664,0.08837891,-0.112793,-0.3110352
0.25,1,0.3125,-0.03857422,-0.003417969,0.9633789,0.08837891,-0.112793,-0.3110352
0.3125,1.0625,0.125,-0.03466797,0.01123047,0.9633789,0.08398438,-0.1142578,-0.3110352
0,1.4375,0.375,-0.02294922,0.01123047,0.9594727,0.08398438,-0.1142578,-0.3110352
0.6875,1.25,0.1875,-0.03076172,0.007324219,0.9672852,0.08398438,-0.1142578,-0.3110352
0.25,0.625,0.375,-0.03466797,0.01513672,0.9516602,0.09326172,-0.112793,-0.3125
0.5625,0.75,0.0625,-0.04248047,0.01123047,0.9711914,0.09326172,-0.112793,-0.3125
0.5625,0.9375,-0.0625,-0.05810547,0,0.9633789,0.09326172,-0.112793,-0.3125
0.5,0.625,0.125,-0.04248047,0.007324219,0.9829102,0.09326172,-0.112793,-0.3125
1.375,1.5625,-0.0625,-0.01513672,0.007324219,0.9594727,0.09326172,-0.112793,-0.3125
0.5,1.3125,0,-0.03466797,0.007324219,0.9829102,0.09326172,-0.112793,-0.3125
0.875,1.5625,-0.125,-0.04248047,0.003417969,0.9594727,0.09326172,-0.112793,-0.3125
0.875,0.9375,-0.4375,-0.03076172,0.01513672,0.9477539,0.09326172,-0.1108398,-0.3154297
1.5625,1.875,-0.4375,-0.05419922,-0.01904297,0.9790039,0.09326172,-0.1108398,-0.3154297
1.375,1.375,0,-0.02685547,0.01513672,0.9946289,0.09326172,-0.1108398,-0.3154297
1.125,1.375,-0.375,-0.03076172,-0.01123047,0.9438477,0.08740234,-0.109375,-0.3125
1,1.4375,-0.25,-0.03857422,0.01513672,0.9672852,0.08740234,-0.109375,-0.3125
1.125,0.8125,0.0625,-0.06591797,0.007324219,0.9829102,0.08740234,-0.109375,-0.3125
0.9375,0.3125,-0.5625,-0.03466797,0.01123047,0.9672852,0.09326172,-0.1083984,-0.3178711
0.9375,0.8125,-0.625,-0.04638672,0.01123047,0.9868164,0.09326172,-0.1083984,-0.3178711
0.75,0.5625,-0.375,-0.03076172,0.007324219,0.9868164,0.09326172,-0.1083984,-0.3178711
1.5,1.375,-0.4375,-0.05029297,0.01123047,0.9829102,0.09326172,-0.1083984,-0.3178711
1.3125,0.8125,-0.1875,-0.03076172,0.01513672,0.9555664,0.09082031,-0.1186523,-0.3125
0.25,0.9375,-0.125,-0.04638672,0.01123047,0.9750977,0.09082031,-0.1186523,-0.3125
0.4375,0.5,-0.1875,-0.05029297,0.01123047,0.9829102,0.09082031,-0.1186523,-0.3125
0.75,0.5,-0.6875,-0.06201172,0.03466797,0.9555664,0.09082031,-0.1025391,-0.3139648
0.9375,1.25,-1.25,-0.03466797,0.01513672,0.9750977,0.09082031,-0.1025391,-0.3139648
0.75,0.1875,-0.875,-0.04638672,0.003417969,0.9516602,0.09082031,-0.1025391,-0.3139648
0.6875,0.375,-0.6875,-0.02685547,0.003417969,0.9985352,0.08984375,-0.1152344,-0.3178711
0.3125,0.3125,-1.1875,-0.04638672,0.03466797,0.9907227,0.08984375,-0.1152344,-0.3178711
0.625,0.5625,-0.875,-0.05419922,0.01513672,0.9633789,0.08984375,-0.1152344,-0.3178711
0.6875,0.5,-0.5,-0.03076172,0.007324219,0.9633789,0.08984375,-0.1152344,-0.3178711
0.0625,-0.125,-0.75,-0.04248047,0,0.9711914,0.08740234,-0.1000977,-0.3168945
0.375,-0.3125,-0.375,-0.05029297,0.007324219,0.9868164,0.08740234,-0.1000977,-0.3168945
0.4375,0.0625,-0.4375,-0.05419922,0,0.9829102,0.08740234,-0.1000977,-0.3168945
0.6875,0.125,-1,-0.03466797,0.01123047,0.9516602,0.08837891,-0.112793,-0.3081055
0.4375,0.3125,0.0625,-0.04638672,-0.003417969,0.9829102,0.08837891,-0.112793,-0.3081055
0.25,0.0625,-0.9375,-0.05029297,0,0.9711914,0.08837891,-0.112793,-0.3081055
0.25,-0.1875,-0.5,-0.04248047,0.01123047,0.9868164,0.08398438,-0.1142578,-0.3125
0.125,-0.1875,-0.625,-0.05029297,-0.007324219,0.9829102,0.08398438,-0.1142578,-0.3125
-0.125,0,-0.6875,-0.02685547,-0.007324219,0.9711914,0.08398438,-0.1142578,-0.3125
-0.5625,0.0625,-0.4375,-0.03857422,0.01513672,0.9672852,0.08398438,-0.1142578,-0.3125
0.4375,-0.1875,-0.8125,-0.01513672,0.01123047,0.9477539,0.08398438,-0.1142578,-0.3125
-0.1875,0,-0.75,-0.03857422,0.01513672,0.9868164,0.08398438,-0.1142578,-0.3125
0.0625,0.3125,-0.4375,-0.04248047,-0.007324219,0.9829102,0.08398438,-0.1142578,-0.3125
0.9375,0.5,-0.75,-0.05029297,0.003417969,0.9829102,0.09082031,-0.112793,-0.3110352
1.1875,0.625,-0.5625,-0.02685547,0,0.9555664,0.09082031,-0.112793,-0.3110352
1.0625,0.875,-0.9375,-0.03076172,0,0.9477539,0.09082031,-0.112793,-0.3110352
0.8125,1.0625,-0.5,-0.05810547,0,0.9829102,0.09179688,-0.112793,-0.3168945
0.875,1.0625,-0.8125,-0.03076172,-0.01513672,0.9711914,0.09179688,-0.112793,-0.3168945
0.375,0.75,-1.125,-0.04248047,0.01513672,0.9633789,0.09179688,-0.112793,-0.3168945
0.75,0.9375,-0.625,-0.05029297,0.01123047,0.9672852,0.09179688,-0.112793,-0.3168945
0.8125,1.25,-0.125,-0.05029297,0.01513672,0.9672852,0.09179688,-0.112793,-0.3168945
0.6875,0.9375,-0.9375,-0.05810547,0.01513672,0.9868164,0.09179688,-0.112793,-0.3168945
0.0625,1,-0.6875,-0.04248047,0.01123047,0.9868164,0.09179688,-0.112793,-0.3168945
0.4375,0.375,-0.8125,-0.06201172,0.02685547,0.9868164,0.08740234,-0.1118164,-0.3168945
0.1875,0.5,-0.3125,-0.06201172,0,0.9672852,0.08740234,-0.1118164,-0.3168945
0.4375,0.25,0.0625,-0.07373047,0.01123047,0.9907227,0.08740234,-0.1118164,-0.3168945
-0.625,-0.0625,-0.25,-0.05029297,0.007324219,0.9633789,0.08837891,-0.105957,-0.3110352
-0.0625,0,-0.3125,-0.04638672,0.007324219,0.9477539,0.08837891,-0.105957,-0.3110352
0,0,-0.4375,-0.04638672,0.003417969,0.9829102,0.08837891,-0.105957,-0.3110352
0.875,0.1875,-0.3125,-0.05029297,0.01513672,0.9711914,0.08740234,-0.1142578,-0.3125
0.1875,-0.0625,-0.125,-0.05029297,0.01123047,0.9555664,0.08740234,-0.1142578,-0.3125
0,0.375,-0.3125,-0.05419922,0.02685547,0.9711914,0.08740234,-0.1142578,-0.3125
0.375,0.625,-0.3125,-0.03466797,0.01123047,0.9868164,0.08740234,-0.1142578,-0.3125
0.375,-0.5625,-0.25,-0.04638672,0.01123047,0.9868164,0.08984375,-0.1142578,-0.3081055
0.0625,0.1875,-0.6875,-0.03857422,0.007324219,0.9946289,0.08984375,-0.1142578,-0.3081055
0.125,-0.5,-0.6875,-0.04248047,0.007324219,0.9829102,0.08984375,-0.1142578,-0.3081055
0.1875,-0.5625,-0.75,-0.04248047,-0.007324219,0.9711914,0.09082031,-0.1118164,-0.3027344
-0.25,-0.25,-0.625,-0.05029297,0.01904297,0.9907227,0.09082031,-0.1118164,-0.3027344
-0.125,-0.75,0,-0.03857422,0.01123047,0.9790039,0.09082031,-0.1118164,-0.3027344
-0.125,-0.625,-0.25,-0.04638672,0.01123047,0.9829102,0.0859375,-0.1142578,-0.3222656
-0.375,-0.625,-0.3125,-0.03857422,0.007324219,0.9790039,0.0859375,-0.1142578,-0.3222656
-0.125,-1.3125,-0.625,-0.04638672,0.01513672,0.9555664,0.0859375,-0.1142578,-0.3222656
0.0625,-1.125,-0.1875,-0.04248047,0.03076172,0.9711914,0.0859375,-0.1142578,-0.3222656
-0.5,-0.625,-0.3125,-0.03857422,0.01513672,0.9321289,0.09082031,-0.1069336,-0.3139648
0.0625,-0.6875,-0.4375,-0.03466797,0.01904297,0.9711914,0.09082031,-0.1069336,-0.3139648
0,-0.625,-0.8125,-0.03466797,0.01513672,0.9555664,0.09082031,-0.1069336,-0.3139648
0.3125,-0.125,-0.5625,-0.03857422,0.01123047,0.9790039,0.08251953,-0.109375,-0.3095703
0.6875,-0.375,-0.5625,-0.03076172,0.01513672,0.9672852,0.08251953,-0.109375,-0.3095703
0.625,0.125,-0.6875,-0.03466797,0.01513672,0.9672852,0.08251953,-0.109375,-0.3095703
0.6875,-0.125,-0.875,-0.03076172,0.02685547,0.9672852,0.09423828,-0.112793,-0.3095703
0.5625,-0.375,-0.6875,-0.03857422,0.01513672,0.9555664,0.09423828,-0.112793,-0.3095703
0.9375,-0.75,-1,-0.02685547,0.01513672,0.9672852,0.09423828,-0.112793,-0.3095703
0.75,-0.0625,-1.0625,-0.02294922,0.01513672,0.9672852,0.09423828,-0.112793,-0.3095703
1.25,-0.375,-0.9375,-0.03857422,0.007324219,0.9633789,0.09423828,-0.112793,-0.3095703
1.0625,0.0625,-1.3125,-0.03466797,0.04248047,0.9711914,0.09423828,-0.112793,-0.3095703
1.1875,-0.625,-1.3125,-0.02685547,0.007324219,0.9672852,0.09423828,-0.112793,-0.3095703
0.6875,0,-1.5625,-0.05419922,0.02294922,0.9829102,0.09423828,-0.1118164,-0.3178711
1.3125,-0.0625,-1,-0.04248047,0.01123047,0.9907227,0.09423828,-0.1118164,-0.3178711
1.25,-0.8125,-1.375,-0.05419922,0.007324219,0.9750977,0.09423828,-0.1118164,-0.3178711
1.0625,0,-0.9375,-0.03466797,0.01123047,0.9711914,0.08740234,-0.1083984,-0.3193359
1.5,-0.4375,-0.875,-0.04638672,-0.007324219,0.9711914,0.08740234,-0.1083984,-0.3193359
1.3125,0.3125,-0.5,-0.05029297,-0.003417969,0.9672852,0.08740234,-0.1083984,-0.3193359
1.3125,-0.1875,-1,-0.04638672,0.01123047,0.9829102,0.08740234,-0.1083984,-0.3193359
1.25,-0.3125,-0.9375,-0.04248047,0.02685547,0.9985352,0.08740234,-0.1083984,-0.3193359
1,-0.1875,-0.6875,-0.05029297,0.01513672,0.9750977,0.08740234,-0.1083984,-0.3193359
0.625,-0.4375,-0.5625,-0.03857422,0.007324219,0.9711914,0.08740234,-0.1083984,-0.3193359
0.375,-0.875,-0.6875,-0.05810547,-0.003417969,0.9829102,0.08984375,-0.1142578,-0.3095703
0.5,-1.0625,-0.8125,-0.03857422,0.007324219,0.9672852,0.08984375,-0.1142578,-0.3095703
0.875,-0.25,-0.75,-0.05029297,0,0.9672852,0.08984375,-0.1142578,-0.3095703
0.5,-0.375,-0.1875,-0.05029297,0.03466797,0.9477539,0.09667969,-0.1176758,-0.3110352
0.3125,-0.5625,-0.5,-0.03857422,0.01904297,0.9829102,0.09667969,-0.1176758,-0.3110352
0.9375,-0.5625,-0.4375,-0.04638672,0.01513672,0.9711914,0.09667969,-0.1176758,-0.3110352
0.4375,-0.3125,-0.6875,-0.05810547,0.01513672,0.9946289,0.09521484,-0.109375,-0.3222656
0.6875,-0.4375,-0.8125,-0.03076172,0.01513672,0.9946289,0.09521484,-0.109375,-0.3222656
1,-0.1875,-0.25,-0.05029297,0.02685547,0.9868164,0.09521484,-0.109375,-0.3222656
0.375,-0.3125,-0.8125,-0.04638672,0.01513672,0.9829102,0.09521484,-0.109375,-0.3222656
0.4375,-0.125,-0.625,-0.03466797,0.01123047,0.9555664,0.08984375,-0.105957,-0.3125
0.1875,-0.875,-0.625,-0.02685547,0.01513672,0.9750977,0.08984375,-0.105957,-0.3125
0.4375,0.0625,-0.6875,-0.03076172,0.03076172,0.9868164,0.08984375,-0.105957,-0.3125
-0.4375,-1.0625,-0.625,-0.04248047,0.01904297,0.9946289,0.08837891,-0.1118164,-0.3041992
0.25,0.125,-0.5625,-0.03857422,0,0.9750977,0.08837891,-0.1118164,-0.3041992
-0.3125,0.0625,-0.25,-0.05810547,0.01513672,0.9672852,0.08837891,-0.1118164,-0.3041992
0.125,-1.1875,-0.1875,-0.04638672,0.007324219,0.9711914,0.1000977,-0.1118164,-0.3154297
-0.125,-0.375,-0.5625,-0.05029297,-0.007324219,0.9868164,0.1000977,-0.1118164,-0.3154297
-0.75,-0.8125,-0.125,-0.05029297,0.01513672,0.9555664,0.1000977,-0.1118164,-0.3154297
-0.3125,-0.3125,-0.75,-0.05810547,0.01123047,0.9633789,0.1000977,-0.1118164,-0.3154297
-0.125,-0.3125,0.0625,-0.03076172,0.007324219,0.9555664,0.08837891,-0.1176758,-0.3154297
-0.5,0.1875,-0.3125,-0.01904297,0.02294922,0.9829102,0.08837891,-0.1176758,-0.3154297
-0.875,-0.6875,-0.0625,-0.04638672,0.01123047,0.9633789,0.08837891,-0.1176758,-0.3154297
-0.4375,0,-0.3125,-0.04248047,0.01513672,0.9555664,0.09179688,-0.1083984,-0.3208008
-0.5625,0.0625,-0.1875,-0.03857422,0.007324219,0.9750977,0.09179688,-0.1083984,-0.3208008
-0.25,0.25,0,-0.04638672,0.01513672,0.9594727,0.09179688,-0.1083984,-0.3208008
0,-0.1875,-0.375,-0.05029297,0.003417969,0.9829102,0.08984375,-0.112793,-0.3139648
-0.9375,0.0625,-0.1875,-0.02685547,0.02685547,0.9829102,0.08984375,-0.112793,-0.3139648
-0.8125,-0.125,-0.125,-0.03857422,0.01904297,0.9711914,0.08984375,-0.112793,-0.3139648
-0.6875,-0.125,-0.625,-0.05419922,0.01513672,0.9946289,0.08984375,-0.112793,-0.3139648
-1.0625,-0.375,0,-0.04248047,0.01513672,0.9555664,0.08984375,-0.112793,-0.3139648
-1.0625,-0.5,-0.375,-0.03857422,0,0.9672852,0.08984375,-0.112793,-0.3139648
-1.125,-0.75,-0.5,-0.02294922,0.007324219,0.9594727,0.08984375,-0.112793,-0.3139648
-0.75,-0.3125,0,-0.04638672,-0.007324219,0.9594727,0.09423828,-0.1118164,-0.3081055
-0.3125,-0.6875,-0.1875,-0.02685547,0.01513672,0.9829102,0.09423828,-0.1118164,-0.3081055
0,-1.0625,-0.375,-0.05419922,0.01123047,0.9829102,0.09423828,-0.1118164,-0.3081055
-0.25,-0.6875,-0.625,-0.04248047,-0.003417969,0.9946289,0.08984375,-0.1069336,-0.3095703
-0.5,-0.5,-0.625,-0.03857422,0.01123047,0.9829102,0.08984375,-0.1069336,-0.3095703
0,-0.4375,-0.5625,-0.02294922,0,0.9672852,0.08984375,-0.1069336,-0.3095703
-0.125,-0.125,-0.3125,-0.05419922,0.01513672,0.9829102,0.08984375,-0.1069336,-0.3095703
0.0625,-0.6875,-1,-0.03466797,0.01123047,0.9711914,0.08984375,-0.1069336,-0.3095703
0,0,-0.375,-0.02294922,0,0.9829102,0.08984375,-0.1069336,-0.3095703
0.0625,-0.5,-0.375,-0.05419922,0.007324219,0.9750977,0.08984375,-0.1069336,-0.3095703
-0.1875,0.5,-0.125,-0.03857422,0.003417969,0.9750977,0.09179688,-0.112793,-0.3139648
-0.125,0.125,0.0625,-0.04638672,0.01513672,0.9438477,0.09179688,-0.112793,-0.3139648
0.0625,0,-0.8125,-0.02294922,0.01513672,0.9672852,0.09179688,-0.112793,-0.3139648
-0.1875,-0.125,-0.5625,-0.04638672,0,0.9750977,0.08984375,-0.112793,-0.3110352
-0.25,0,-0.3125,-0.04638672,0.007324219,0.9868164,0.08984375,-0.112793,-0.3110352
0.3125,-0.5,-0.375,-0.04638672,0.007324219,0.9790039,0.08984375,-0.112793,-0.3110352
0.125,-0.125,0,-0.03076172,0,0.9633789,0.09082031,-0.112793,-0.3125
-0.1875,-0.25,-0.625,-0.03857422,-0.007324219,0.9829102,0.09082031,-0.112793,-0.3125
-0.3125,-0.5,-0.125,-0.01904297,0,0.9829102,0.09082031,-0.112793,-0.3125
0,-0.5,0.0625,-0.06591797,0.003417969,0.9711914,0.09082031,-0.112793,-0.3125
-0.5625,0,0.1875,-0.04248047,0.01123047,0.9672852,0.08251953,-0.1152344,-0.3178711
-0.3125,-0.6875,0,-0.05810547,0.007324219,0.9829102,0.08251953,-0.1152344,-0.3178711
0,-1,-0.5,-0.03466797,0.01123047,0.9711914,0.08251953,-0.1152344,-0.3178711
-0.375,-1.125,-0.0625,-0.03857422,0.01513672,0.9829102,0.08984375,-0.1118164,-0.3193359
-0.5,-0.8125,-0.4375,-0.04248047,0.01123047,0.9829102,0.08984375,-0.1118164,-0.3193359
-0.75,-0.8125,-0.125,-0.04638672,0.03076172,0.9829102,0.08984375,-0.1118164,-0.3193359
-0.3125,-1.125,-0.125,-0.05419922,0.007324219,0.9516602,0.08837891,-0.1118164,-0.3154297
-0.6875,-0.3125,-0.3125,-0.05810547,-0.01904297,0.9672852,0.08837891,-0.1118164,-0.3154297
-0.375,-1.5625,-0.1875,-0.03857422,0.003417969,0.9829102,0.08837891,-0.1118164,-0.3154297
-0.1875,-0.875,-0.0625,-0.04638672,0.01123047,0.9477539,0.08837891,-0.1118164,-0.3154297
0.25,-1.25,-0.5,-0.01513672,0.01123047,0.9829102,0.09082031,-0.1118164,-0.3125
-0.8125,-0.9375,-0.0625,-0.03857422,0.01123047,0.9829102,0.09082031,-0.1118164,-0.3125
-0.4375,-0.75,0,-0.05810547,0,0.9711914,0.09082031,-0.1118164,-0.3125
-0.375,-1,-0.1875,-0.04248047,0.007324219,0.9633789,0.09082031,-0.112793,-0.3071289
-0.375,-1.375,-0.0625,-0.03857422,0.02294922,0.9946289,0.09082031,-0.112793,-0.3071289
-0.375,-0.9375,0.25,-0.04248047,0.007324219,0.9868164,0.09082031,-0.112793,-0.3071289
-0.5,-1.125,-0.5625,-0.04248047,0.01513672,0.9829102,0.09667969,-0.1142578,-0.3125
-0.875,-1.625,-0.1875,-0.03857422,-0.003417969,0.9594727,0.09667969,-0.1142578,-0.3125
-0.8125,-1.25,0.0625,-0.01513672,0,0.9711914,0.09667969,-0.1142578,-0.3125
-0.8125,-1.4375,0,-0.03466797,-0.003417969,0.9829102,0.09667969,-0.1142578,-0.3125
-0.875,-1.625,0.0625,-0.05029297,0.03466797,0.9829102,0.09667969,-0.1142578,-0.3125
-0.3125,-2.0625,0.0625,-0.01513672,0,0.9672852,0.09667969,-0.1142578,-0.3125
-1.125,-1.9375,0.1875,-0.04638672,0,0.9711914,0.09667969,-0.1142578,-0.3125
-1.3125,-1.375,0.4375,-0.03076172,0.003417969,0.9711914,0.09423828,-0.1035156,-0.3168945
-1.1875,-1.8125,0.25,-0.04638672,0.007324219,0.9829102,0.09423828,-0.1035156,-0.3168945
-0.875,-1.75,0.0625,-0.04248047,0.01123047,0.9672852,0.09423828,-0.1035156,-0.3168945
-1.3125,-2,0.5,-0.03076172,0.01513672,0.9555664,0.08984375,-0.1142578,-0.3193359
-1.125,-1.4375,0.3125,-0.04638672,0.003417969,0.9711914,0.08984375,-0.1142578,-0.3193359
-0.75,-1.6875,0.4375,-0.03466797,-0.007324219,0.9672852,0.08984375,-0.1142578,-0.3193359
-0.875,-2.3125,0.6875,-0.04638672,0.003417969,0.9711914,0.08984375,-0.1142578,-0.3193359
-1.4375,-2.5,0.4375,-0.01123047,-0.003417969,0.9711914,0.08984375,-0.1142578,-0.3193359
-0.6875,-1.625,0.5,-0.02685547,0.003417969,0.9555664,0.08984375,-0.1142578,-0.3193359
-1.5,-2.25,0.4375,-0.02685547,0.01123047,0.9711914,0.08984375,-0.1142578,-0.3193359
0,-1.1875,0.5,-0.01513672,0.007324219,0.9790039,0.09521484,-0.1118164,-0.3168945
-0.75,-2.0625,0.375,-0.01123047,0.02685547,0.9829102,0.09521484,-0.1118164,-0.3168945
-0.3125,-1.4375,0.375,-0.04638672,0.01123047,0.9829102,0.09521484,-0.1118164,-0.3168945
-0.6875,-0.375,0.1875,-0.02294922,0.01123047,0.9711914,0.09179688,-0.1083984,-0.3095703
0,-1,0,-0.02685547,0.007324219,0.9555664,0.09179688,-0.1083984,-0.3095703
-0.125,-0.9375,-0.125,-0.02685547,0.01513672,0.9672852,0.09179688,-0.1083984,-0.3095703
-0.3125,-0.125,-0.125,-0.03076172,0.003417969,0.9868164,0.09082031,-0.1069336,-0.3193359
0.0625,-0.0625,0.0625,-0.01513672,-0.007324219,0.9594727,0.09082031,-0.1069336,-0.3193359
0.1875,-0.4375,-0.25,-0.01513672,0.007324219,0.9829102,0.09082031,-0.1069336,-0.3193359
0.5,-0.375,-0.25,-0.03076172,0.007324219,0.9750977,0.09082031,-0.1069336,-0.3193359
0,-0.1875,-0.1875,-0.03466797,0.01513672,0.9711914,0.08740234,-0.1083984,-0.3125
0.625,0.625,-0.25,-0.03076172,0.01123047,0.9750977,0.08740234,-0.1083984,-0.3125
0.3125,-0.125,-0.4375,-0.03466797,0.01513672,0.9711914,0.08740234,-0.1083984,-0.3125
0.3125,-0.1875,-0.125,-0.01513672,0,0.9829102,0.09326172,-0.1069336,-0.3125
0.375,0.375,0,-0.03466797,-0.003417969,0.9711914,0.09326172,-0.1069336,-0.3125
0.625,-0.625,-0.25,-0.05810547,0.01123047,0.9633789,0.09326172,-0.1069336,-0.3125
0.5,0,-0.75,-0.02685547,0.01123047,0.9829102,0.09082031,-0.109375,-0.3081055
0.625,-0.625,0.0625,-0.04638672,-0.003417969,0.9829102,0.09082031,-0.109375,-0.3081055
0.3125,-0.0625,-0.5625,-0.03466797,-0.003417969,0.9829102,0.09082031,-0.109375,-0.3081055
0,-0.5,-0.25,-0.04638672,0.007324219,0.9672852,0.09082031,-0.109375,-0.3081055
0.8125,0.0625,0,-0.05810547,0.01123047,0.9633789,0.09082031,-0.1186523,-0.3193359
0.5625,0.0625,-0.625,-0.05029297,-0.007324219,0.9829102,0.09082031,-0.1186523,-0.3193359
0.75,-0.5,-0.0625,-0.03466797,0.007324219,0.9985352,0.09082031,-0.1186523,-0.3193359
-0.125,-0.0625,-0.1875,-0.01123047,0.01513672,0.9829102,0.0859375,-0.1118164,-0.3178711
-0.25,-0.5,-0.125,-0.04248047,0.007324219,0.9633789,0.0859375,-0.1118164,-0.3178711
0,-0.125,-0.3125,-0.02685547,0.02294922,0.9829102,0.0859375,-0.1118164,-0.3178711
0,-0.4375,-0.375,-0.05029297,0.01513672,0.9868164,0.09082031,-0.1083984,-0.3081055
0.3125,-0.9375,0.3125,-0.02685547,0.01123047,0.9633789,0.09082031,-0.1083984,-0.3081055
0.3125,-0.8125,0,-0.05029297,0.02685547,0.9594727,0.09082031,-0.1083984,-0.3081055
0,-0.125,0,-0.04248047,0.02685547,0.9907227,0.09082031,-0.1083984,-0.3081055
-0.5625,-0.75,-0.4375,-0.01123047,-0.01904297,0.9672852,0.09082031,-0.1083984,-0.3081055
0,0,0,-0.04248047,0.01513672,0.9672852,0.09082031,-0.1083984,-0.3081055
-0.1875,-0.6875,-0.1875,-0.03076172,0.01513672,0.9868164,0.09082031,-0.1083984,-0.3081055
-0.1875,-0.5625,0.1875,-0.03076172,-0.003417969,0.9829102,0.08496094,-0.1108398,-0.3095703
-0.125,-0.3125,0.0625,-0.03857422,-0.003417969,0.9829102,0.08496094,-0.1108398,-0.3095703
-0.5,-0.875,-0.1875,-0.05029297,0,0.9829102,0.08496094,-0.1108398,-0.3095703
-0.1875,-0.6875,0,-0.02685547,0.01513672,0.9711914,0.08740234,-0.109375,-0.3208008
0.0625,-0.5625,-0.375,-0.03076172,0.01123047,0.9477539,0.08740234,-0.109375,-0.3208008
-0.375,-0.1875,-0.0625,-0.01513672,0.007324219,0.9711914,0.08740234,-0.109375,-0.3208008
-0.25,-0.875,0.5625,-0.02685547,0.007324219,0.9868164,0.08740234,-0.109375,-0.3208008
-0.125,-0.3125,-0.3125,-0.04248047,0.003417969,0.9868164,0.08740234,-0.109375,-0.3208008
-0.25,0,0.125,-0.03857422,0.003417969,0.9594727,0.08740234,-0.109375,-0.3208008
0.125,0,-0.5625,-0.03857422,-0.003417969,0.9750977,0.08740234,-0.109375,-0.3208008
0.3125,0,-0.5,-0.01904297,-0.01123047,0.9633789,0.0859375,-0.1176758,-0.3125
-0.1875,-0.3125,0,-0.03076172,0,0.9633789,0.0859375,-0.1176758,-0.3125
0.125,0.25,-0.5,-0.01513672,-0.01123047,0.9633789,0.0859375,-0.1176758,-0.3125
0,0.5625,-0.1875,-0.03857422,0,0.9594727,0.09667969,-0.1108398,-0.3154297
0.3125,0.0625,-0.3125,-0.04248047,0.01513672,0.9868164,0.09667969,-0.1108398,-0.3154297
0.625,0.8125,-0.1875,-0.05029297,0,0.9672852,0.09667969,-0.1108398,-0.3154297
0.4375,-0.3125,-0.5,-0.03466797,0,0.9555664,0.08398438,-0.1118164,-0.3139648
0.125,0.3125,-0.625,-0.02685547,0.01513672,0.9829102,0.08398438,-0.1118164,-0.3139648
0.1875,0.3125,-0.3125,-0.05810547,0.003417969,0.9829102,0.08398438,-0.1118164,-0.3139648
0,0,-0.5625,-0.02685547,0.01123047,0.9438477,0.08398438,-0.1118164,-0.3139648
0.625,0.0625,-0.625,-0.03466797,0,0.9672852,0.08984375,-0.1142578,-0.3208008
0.3125,0.1875,-0.375,-0.03466797,0.01904297,0.9829102,0.08984375,-0.1142578,-0.3208008
0.25,0.125,-0.5,-0.03076172,-0.003417969,0.9555664,0.08984375,-0.1142578,-0.3208008
0.1875,0.4375,-0.3125,-0.01513672,0.01513672,0.9829102,0.09326172,-0.1108398,-0.3095703
-0.375,0.625,-0.375,-0.04248047,0.01904297,0.9868164,0.09326172,-0.1108398,-0.3095703
0,-0.25,-0.4375,-0.03466797,0.003417969,0.9516602,0.09326172,-0.1108398,-0.3095703
0.0625,0.1875,-0.4375,-0.04248047,0.01123047,0.9711914,0.09082031,-0.112793,-0.3168945
-0.125,-0.25,-0.375,-0.03466797,0.003417969,0.9594727,0.09082031,-0.112793,-0.3168945
0.25,-0.1875,-0.25,-0.05029297,0.003417969,0.9829102,0.09082031,-0.112793,-0.3168945
0.0625,-0.0625,-0.1875,-0.04248047,0.01904297,0.9750977,0.09082031,-0.112793,-0.3168945
0.125,-0.125,-0.25,-0.05029297,-0.01123047,0.9594727,0.08837891,-0.1142578,-0.3139648
0,-0.1875,-0.5625,-0.02685547,-0.003417969,0.9711914,0.08837891,-0.1142578,-0.3139648
0.375,0.3125,-0.5625,-0.03466797,0.01513672,0.9829102,0.08837891,-0.1142578,-0.3139648
0.8125,0.5,-1.125,-0.05029297,0.003417969,1.001953,0.09179688,-0.1108398,-0.3110352
0.375,-0.375,0.1875,-0.01513672,0.007324219,0.9829102,0.09179688,-0.1108398,-0.3110352
0,-0.1875,-0.1875,-0.03076172,-0.003417969,0.9594727,0.09179688,-0.1108398,-0.3110352
-0.0625,0.3125,-0.3125,-0.03857422,0.01123047,0.9750977,0.08740234,-0.1108398,-0.3110352
0.1875,-0.6875,-0.25,-0.03466797,0.003417969,0.9829102,0.08740234,-0.1108398,-0.3110352
-0.25,0.3125,-0.5,-0.03857422,0.01123047,0.9555664,0.08740234,-0.1108398,-0.3110352
0,0.5625,0,-0.03076172,0,0.9633789,0.08740234,-0.1108398,-0.3110352
0.3125,0.1875,-0.4375,-0.03857422,-0.003417969,0.9829102,0.08740234,-0.1108398,-0.3193359
0.6875,0.125,-0.3125,-0.03076172,0.01123047,0.9829102,0.08740234,-0.1108398,-0.3193359
0.25,0,-0.5625,-0.02294922,0,0.9594727,0.08740234,-0.1108398,-0.3193359
0.3125,0,-0.5,-0.02294922,0.003417969,0.9750977,0.08740234,-0.1083984,-0.3154297
0.5,-0.4375,-0.4375,-0.04248047,0.01123047,0.9555664,0.08740234,-0.1083984,-0.3154297
0.375,-0.375,0.1875,-0.03466797,0.003417969,0.9711914,0.08740234,-0.1083984,-0.3154297
0.5625,0.25,-0.25,-0.04248047,0.003417969,0.9907227,0.08740234,-0.1152344,-0.3178711
0.25,0.3125,-0.1875,-0.04248047,0,0.9829102,0.08740234,-0.1152344,-0.3178711
0,0.125,-0.75,-0.03466797,0,0.9672852,0.08740234,-0.1152344,-0.3178711
0.25,0,-0.1875,-0.03466797,0,0.9868164,0.08740234,-0.1152344,-0.3178711
0.0625,-0.0625,-0.875,-0.03857422,0.01513672,0.9868164,0.08740234,-0.1152344,-0.3178711
0.375,0.0625,-0.25,-0.01513672,0.01123047,0.9790039,0.08740234,-0.1152344,-0.3178711
0.0625,0,-0.1875,-0.04638672,0,0.9907227,0.08740234,-0.1152344,-0.3178711
-0.0625,-0.3125,0,-0.03466797,0,0.9868164,0.08740234,-0.1083984,-0.3095703
-0.125,-0.375,-0.5625,-0.03466797,0,0.9829102,0.08740234,-0.1083984,-0.3095703
0.375,-0.125,-0.1875,-0.02294922,0.01513672,0.9907227,0.08740234,-0.1083984,-0.3095703
0.125,0.125,-0.625,-0.04638672,0.01123047,0.9829102,0.08837891,-0.1162109,-0.3095703
0,-0.0625,-0.5,-0.05029297,0,0.9633789,0.08837891,-0.1162109,-0.3095703
-0.25,0.125,-0.8125,-0.02685547,0,0.9829102,0.08837891,-0.1162109,-0.3095703
-0.125,0,-0.75,-0.03076172,0.007324219,0.9829102,0.08837891,-0.1152344,-0.3139648
-0.1875,-0.375,-0.75,-0.04638672,0.01123047,0.9829102,0.08837891,-0.1152344,-0.3139648
0.0625,-0.25,-0.1875,-0.02294922,0.003417969,0.9711914,0.08837891,-0.1152344,-0.3139648
0.0625,0.375,-0.5,-0.05810547,0.007324219,0.9672852,0.08837891,-0.1152344,-0.3139648
-0.25,0.125,-0.25,-0.03857422,0,0.9477539,0.0859375,-0.109375,-0.3154297
-0.0625,-0.125,-0.4375,-0.03076172,0,0.9633789,0.0859375,-0.109375,-0.3154297
0.1875,-0.5625,-0.3125,-0.03466797,0.01123047,0.9594727,0.0859375,-0.109375,-0.3154297
0,-0.3125,-0.5625,-0.03857422,0,0.9672852,0.08837891,-0.1176758,-0.3154297
0,-0.5,-0.375,-0.03076172,-0.007324219,0.9829102,0.08837891,-0.1176758,-0.3154297
0.0625,-1,-0.4375,-0.03076172,0.01123047,0.9829102,0.08837891,-0.1176758,-0.3154297
0.0625,-0.4375,-0.3125,-0.03466797,0.01513672,0.9829102,0.08740234,-0.1118164,-0.3208008
0.0625,0,0.0625,-0.03076172,0.003417969,0.9750977,0.08740234,-0.1118164,-0.3208008
0,-0.4375,-0.0625,-0.04248047,0.01513672,0.9555664,0.08740234,-0.1118164,-0.3208008
0,-0.8125,0.1875,-0.04638672,0.01123047,0.9907227,0.08740234,-0.1118164,-0.3208008
-0.9375,-0.5625,-0.125,-0.03857422,0.007324219,0.9750977,0.09326172,-0.1069336,-0.3178711
-0.6875,-0.3125,-0.375,-0.04638672,0.01513672,0.9555664,0.09326172,-0.1069336,-0.3178711
0.1875,-0.4375,-0.125,-0.05029297,0.01513672,0.9750977,0.09326172,-0.1069336,-0.3178711
-0.1875,-0.625,-0.125,-0.03857422,0,0.9672852,0.08740234,-0.1069336,-0.3168945
-0.4375,0.25,-0.375,-0.01513672,0.003417969,0.9829102,0.08740234,-0.1069336,-0.3168945
0.25,-0.375,0,-0.04248047,0.003417969,0.9829102,0.08740234,-0.1069336,-0.3168945
0.25,-0.5625,-0.6875,-0.05419922,0,0.9672852,0.08740234,-0.1142578,-0.3208008
0.0625,-0.0625,0,-0.03857422,0.003417969,0.9868164,0.08740234,-0.1142578,-0.3208008
-0.0625,0.1875,0,-0.01123047,0.01123047,0.9633789,0.08740234,-0.1142578,-0.3208008
0.3125,-0.75,-0.875,-0.04248047,0.003417969,0.9907227,0.08740234,-0.1142578,-0.3208008
0,-0.75,-0.5625,-0.03076172,-0.003417969,0.9711914,0.08740234,-0.1142578,-0.3208008
0,-0.625,-0.5,-0.02685547,0.02685547,0.9555664,0.08740234,-0.1142578,-0.3208008
0.25,-0.0625,-0.0625,-0.03857422,0,0.9516602,0.08740234,-0.1142578,-0.3208008
0.0625,-0.5625,-0.5,-0.02294922,0.01513672,0.9750977,0.08496094,-0.1069336,-0.3154297
0.375,0,-0.5,-0.05029297,0,0.9633789,0.08496094,-0.1069336,-0.3154297
1,0.0625,-0.4375,-0.04248047,0.01513672,0.9829102,0.08496094,-0.1069336,-0.3154297
0.25,0.125,-0.8125,-0.04248047,0.01513672,0.9633789,0.08740234,-0.1142578,-0.3154297
0,-0.375,-0.1875,-0.03076172,0.01904297,0.9711914,0.08740234,-0.1142578,-0.3154297
0.125,-0.3125,-0.6875,-0.05029297,0.01123047,0.9672852,0.08740234,-0.1142578,-0.3154297
0.4375,-0.25,-0.5,-0.03466797,0.007324219,0.9711914,0.08740234,-0.1142578,-0.3154297
0.3125,-0.3125,-0.125,-0.02685547,0,0.9672852,0.08740234,-0.1142578,-0.3154297
0.125,-0.4375,-0.3125,-0.02685547,0,0.9672852,0.08740234,-0.1142578,-0.3154297
0.625,0,-0.5,-0.04248047,0.01123047,0.9399414,0.08740234,-0.1142578,-0.3154297
0.4375,0,-0.625,-0.03857422,-0.007324219,0.9829102,0.08740234,-0.1118164,-0.3081055
0.75,0.6875,-0.125,-0.02294922,0.003417969,0.9750977,0.08740234,-0.1118164,-0.3081055
0.375,-0.0625,-0.25,-0.03857422,0,0.9672852,0.08740234,-0.1118164,-0.3081055
0.4375,-0.0625,-0.25,-0.02294922,0.01123047,0.9907227,0.09082031,-0.1083984,-0.3178711
-0.0625,-0.0625,-0.125,-0.02685547,0.007324219,0.9672852,0.09082031,-0.1083984,-0.3178711
0.1875,0.3125,-0.375,-0.03076172,0.007324219,0.9594727,0.09082031,-0.1083984,-0.3178711
0.0625,0.125,0,-0.03466797,0.007324219,0.9829102,0.08837891,-0.1142578,-0.3125
-0.125,-0.3125,-0.1875,-0.03466797,0.007324219,0.9829102,0.08837891,-0.1142578,-0.3125
0,-0.375,-0.5,-0.03076172,0.01123047,0.9399414,0.08837891,-0.1142578,-0.3125
-0.25,-0.125,0.0625,-0.03466797,0.007324219,0.9633789,0.08837891,-0.1142578,-0.3125
-0.625,0,0.0625,-0.03857422,0.01513672,0.9868164,0.08740234,-0.1069336,-0.3168945
0.0625,-0.0625,-0.0625,-0.04638672,0.02294922,0.9672852,0.08740234,-0.1069336,-0.3168945
-0.6875,-0.375,-0.4375,-0.03857422,-0.007324219,0.9711914,0.08740234,-0.1069336,-0.3168945
-0.1875,0.0625,-0.4375,-0.05419922,0.01123047,0.9829102,0.09082031,-0.1083984,-0.3139648
0,-0.375,-0.125,-0.02685547,0.03076172,0.9829102,0.09082031,-0.1083984,-0.3139648
0,-0.25,-0.3125,-0.03076172,0.01513672,0.9829102,0.09082031,-0.1083984,-0.3139648
0,0.0625,0,-0.04248047,0,0.9946289,0.08837891,-0.1025391,-0.3208008
-0.5,0.1875,0,-0.04248047,0,0.9829102,0.08837891,-0.1025391,-0.3208008
-1.125,0,-0.125,-0.02685547,0.007324219,0.9672852,0.08837891,-0.1025391,-0.3208008
0,-0.5625,-0.25,-0.03857422,0,0.9829102,0.08837891,-0.1025391,-0.3208008
0,-0.375,-0.0625,-0.03076172,0.007324219,0.9868164,0.09521484,-0.1118164,-0.3095703
-0.1875,-0.5625,-0.3125,-0.02685547,0.003417969,0.9477539,0.09521484,-0.1118164,-0.3095703
-0.375,0.0625,-0.125,-0.03466797,0.003417969,0.9868164,0.09521484,-0.1118164,-0.3095703
0.125,-0.375,-0.0625,-0.03076172,0,0.9594727,0.08740234,-0.1142578,-0.3139648
-0.3125,-0.25,-0.3125,-0.03466797,0.003417969,0.9829102,0.08740234,-0.1142578,-0.3139648
-0.125,-0.375,-0.1875,-0.05419922,0,0.9750977,0.08740234,-0.1142578,-0.3139648
0,0,-0.375,-0.04248047,0.01123047,0.9594727,0.08740234,-0.112793,-0.3071289
0.25,0,0,-0.02685547,0.007324219,0.9790039,0.08740234,-0.112793,-0.3071289
0,0.125,-0.5625,-0.04248047,-0.007324219,0.9633789,0.08740234,-0.112793,-0.3071289
-0.125,-0.4375,-0.5,-0.03857422,0.007324219,0.9594727,0.08740234,-0.112793,-0.3071289
-0.3125,-0.3125,-0.5625,-0.03076172,0.01123047,0.9672852,0.08398438,-0.1108398,-0.3125
0.3125,0.0625,0,-0.03857422,-0.007324219,0.9868164,0.08398438,-0.1108398,-0.3125
0.1875,0.125,-0.3125,-0.03076172,-0.01123047,0.9790039,0.08398438,-0.1108398,-0.3125
0.6875,0,-0.25,-0.03076172,0.003417969,0.9829102,0.09082031,-0.1069336,-0.3178711
-0.25,-0.4375,-0.5625,-0.05029297,0.01123047,0.9750977,0.09082031,-0.1069336,-0.3178711
-0.3125,-0.375,-0.375,-0.05029297,0,0.9829102,0.09082031,-0.1069336,-0.3178711
-0.375,0.375,0.1875,-0.03076172,0.003417969,0.9633789,0.08496094,-0.1108398,-0.3139648
0.125,-0.5,-0.25,-0.05029297,0.007324219,0.9868164,0.08496094,-0.1108398,-0.3139648
0.0625,0,0,-0.04248047,-0.01513672,0.9985352,0.08496094,-0.1108398,-0.3139648
-0.125,-0.5625,0,-0.03857422,-0.003417969,0.9477539,0.08496094,-0.1108398,-0.3139648
-0.375,-0.3125,0.0625,-0.03466797,0.007324219,0.9868164,0.08496094,-0.1108398,-0.3139648
-0.1875,-0.25,-0.3125,-0.03466797,0.007324219,0.9594727,0.08496094,-0.1108398,-0.3139648
-0.125,-0.375,-0.0625,-0.02685547,0.01904297,0.9672852,0.08496094,-0.1108398,-0.3139648
-0.25,-0.625,-0.125,-0.02294922,0.01123047,0.9790039,0.09521484,-0.112793,-0.3208008
0.125,0.0625,0,-0.05419922,0.007324219,0.9711914,0.09521484,-0.112793,-0.3208008
-0.25,0,-0.5,-0.04638672,0.02294922,0.9750977,0.09521484,-0.112793,-0.3208008
-0.3125,-0.6875,-0.5625,-0.05029297,0,0.9711914,0.08984375,-0.112793,-0.3208008
-0.3125,-0.4375,-0.25,-0.03076172,0,0.9594727,0.08984375,-0.112793,-0.3208008
-0.25,-0.625,-0.3125,-0.02294922,0,0.9829102,0.08984375,-0.112793,-0.3208008
-0.125,-0.625,-0.3125,-0.03857422,0,0.9711914,0.08984375,-0.112793,-0.3208008
-0.6875,-0.3125,0.0625,-0.03857422,-0.003417969,0.9594727,0.08984375,-0.112793,-0.3208008
0.25,-0.375,-0.1875,-0.03857422,0.007324219,0.9829102,0.08984375,-0.112793,-0.3208008
-0.125,-0.875,0.0625,-0.04248047,0,0.9829102,0.08984375,-0.112793,-0.3208008
-0.25,-0.8125,-0.5625,-0.03857422,0,0.9672852,0.09082031,-0.1152344,-0.3095703
0.0625,0,-0.5625,-0.03857422,0.007324219,0.9555664,0.09082031,-0.1152344,-0.3095703
-0.5,0,-0.0625,-0.04248047,0.01123047,0.9946289,0.09082031,-0.1152344,-0.3095703
0.1875,0.375,-0.1875,-0.02685547,0.01904297,0.9829102,0.09667969,-0.112793,-0.3193359
0.1875,0,0.0625,-0.01513672,0.007324219,0.9829102,0.09667969,-0.112793,-0.3193359
0.4375,-0.4375,-0.125,-0.02685547,0,0.9790039,0.09667969,-0.112793,-0.3193359
0.1875,0.125,-0.0625,-0.02685547,-0.01513672,0.9477539,0.08740234,-0.1108398,-0.3178711
0.5,-0.375,-0.625,-0.02294922,-0.003417969,0.9829102,0.08740234,-0.1108398,-0.3178711
0.4375,-0.0625,-0.625,-0.03857422,0.01123047,0.9633789,0.08740234,-0.1108398,-0.3178711
0.625,0.3125,-0.1875,-0.03076172,0.01513672,0.9672852,0.08740234,-0.1108398,-0.3178711
0.5625,0.125,0.1875,-0.01513672,0.01123047,0.9555664,0.08984375,-0.1118164,-0.3168945
0.4375,0.4375,-0.375,-0.03857422,0.01904297,0.9829102,0.08984375,-0.1118164,-0.3168945
0.3125,0.3125,-0.75,-0.03466797,0,0.9711914,0.08984375,-0.1118164,-0.3168945
0.625,0,-0.5625,-0.02294922,0.01513672,0.9672852,0.08740234,-0.1083984,-0.3154297
0.9375,0.75,-0.375,-0.03857422,-0.007324219,0.9672852,0.08740234,-0.1083984,-0.3154297
0.3125,0,-0.4375,-0.04248047,0,0.9868164,0.08740234,-0.1083984,-0.3154297
0.375,0.0625,-0.375,-0.03076172,0.01123047,0.9633789,0.08740234,-0.112793,-0.3110352
0,0.1875,-0.4375,-0.03857422,0.01123047,0.9594727,0.08740234,-0.112793,-0.3110352
0.375,0.0625,-0.5625,-0.04248047,0,0.9829102,0.08740234,-0.112793,-0.3110352
0.625,0.0625,-0.5,-0.05029297,0.03076172,0.9829102,0.08740234,-0.112793,-0.3110352
0.1875,0.3125,-0.4375,-0.01513672,0.01904297,0.9438477,0.08740234,-0.112793,-0.3110352
0.3125,0.625,-0.75,-0.04248047,0.01123047,0.9594727,0.08740234,-0.112793,-0.3110352
0.375,0.375,0,-0.02685547,-0.01123047,0.9633789,0.08740234,-0.112793,-0.3110352
0.6875,0.0625,-0.0625,-0.03466797,0.01123047,0.9633789,0.08984375,-0.1108398,-0.3168945
-0.25,-0.1875,-0.5,-0.03076172,0.003417969,0.9868164,0.08984375,-0.1108398,-0.3168945
0.5625,0.0625,-0.1875,-0.03857422,0,0.9946289,0.08984375,-0.1108398,-0.3168945
0.4375,0.3125,0,-0.04248047,0.01123047,0.9633789,0.08984375,-0.1142578,-0.3081055
0.3125,-0.25,-0.0625,-0.02294922,0.01513672,0.9750977,0.08984375,-0.1142578,-0.3081055
-0.375,0,-0.4375,-0.01513672,-0.007324219,0.9829102,0.08984375,-0.1142578,-0.3081055
0,-0.5,0,-0.03076172,0.03076172,0.9829102,0.08984375,-0.1142578,-0.3081055
-0.0625,-0.4375,-0.5,-0.03466797,0.007324219,0.9907227,0.08984375,-0.1142578,-0.3081055
0.1875,0,-0.4375,-0.02685547,0.007324219,0.9750977,0.08984375,-0.1142578,-0.3081055
0.0625,-0.0625,-0.3125,-0.03076172,0.01123047,0.9594727,0.08984375,-0.1142578,-0.3081055
-0.0625,-0.0625,-0.25,-0.05029297,0.007324219,0.9829102,0.08154297,-0.1142578,-0.3125
-0.125,-0.5,-0.6875,-0.03466797,-0.02294922,0.9555664,0.08154297,-0.1142578,-0.3125
0.1875,-0.625,-0.625,-0.03857422,0.007324219,0.9633789,0.08154297,-0.1142578,-0.3125
-0.1875,0,-0.375,-0.03076172,0.02294922,0.9829102,0.08740234,-0.1152344,-0.3139648
0,0.25,-0.3125,-0.04248047,0.01123047,0.9633789,0.08740234,-0.1152344,-0.3139648
0,0,-0.4375,-0.04248047,-0.007324219,0.9829102,0.08740234,-0.1152344,-0.3139648
0,0.0625,0,-0.05029297,0.02685547,0.9633789,0.08398438,-0.1083984,-0.3095703
-0.3125,-0.25,-0.0625,-0.03076172,0,0.9750977,0.08398438,-0.1083984,-0.3095703
0.125,-0.3125,-0.0625,-0.01513672,0.007324219,0.9790039,0.08398438,-0.1083984,-0.3095703
0,0.3125,-0.375,-0.03076172,0.01513672,0.9672852,0.08398438,-0.1083984,-0.3095703
0,-0.25,-0.9375,-0.04248047,0.007324219,0.9750977,0.08984375,-0.1108398,-0.3139648
-0.5,0,-0.3125,-0.03076172,0.007324219,0.9790039,0.08984375,-0.1108398,-0.3139648
0.5,-0.6875,-0.5625,-0.04248047,0.007324219,0.9633789,0.08984375,-0.1108398,-0.3139648
0.125,-0.0625,-0.5,-0.03857422,0,0.9672852,0.0859375,-0.112793,-0.3154297
-0.0625,-0.25,-0.6875,-0.03076172,0.003417969,0.9594727,0.0859375,-0.112793,-0.3154297
0.625,0.0625,-0.125,-0.03076172,0.007324219,0.9750977,0.0859375,-0.112793,-0.3154297
0.1875,-0.375,-0.5,-0.03076172,0,0.9829102,0.0859375,-0.1118164,-0.3168945
0.625,0,-0.125,-0.03857422,0.003417969,0.9907227,0.0859375,-0.1118164,-0.3168945
0.4375,-0.0625,-0.625,-0.02685547,0.01123047,0.9438477,0.0859375,-0.1118164,-0.3168945
0,-0.3125,-0.3125,-0.01513672,-0.003417969,0.9868164,0.0859375,-0.1118164,-0.3168945
0.3125,-0.25,-0.25,-0.03857422,0,0.9750977,0.08984375,-0.1108398,-0.3125
0.1875,0.0625,-0.1875,-0.04638672,-0.007324219,0.9711914,0.08984375,-0.1108398,-0.3125
0.3125,0.25,-0.4375,-0.04248047,-0.003417969,0.9829102,0.08984375,-0.1108398,-0.3125
0.1875,-0.25,-0.6875,-0.03857422,0.01123047,0.9672852,0.09423828,-0.112793,-0.3178711
0,0,-0.1875,-0.04248047,0.007324219,0.9711914,0.09423828,-0.112793,-0.3178711
0,-0.1875,-0.5,-0.01513672,0.01123047,0.9711914,0.09423828,-0.112793,-0.3178711
-0.3125,-0.1875,0.0625,-0.03466797,-0.003417969,0.9672852,0.09179688,-0.1083984,-0.3193359
0.0625,0,-0.3125,-0.04248047,0.01513672,0.9672852,0.09179688,-0.1083984,-0.3193359
-0.5625,-0.25,-0.6875,-0.02294922,0.01513672,0.9711914,0.09179688,-0.1083984,-0.3193359
0.0625,-0.25,0,-0.03076172,0.01123047,0.9750977,0.09179688,-0.1083984,-0.3193359
0,0.0625,-0.1875,-0.01123047,0.007324219,0.9672852,0.09326172,-0.1142578,-0.3193359
0.1875,0.0625,-0.5625,-0.02685547,0.01123047,0.9829102,0.09326172,-0.1142578,-0.3193359
-0.25,-0.4375,-0.75,-0.03857422,0,0.9868164,0.09326172,-0.1142578,-0.3193359
1.0625,0,-0.3125,-0.04248047,0,0.9829102,0.08398438,-0.105957,-0.3154297
0.1875,0,-0.25,-0.04248047,0.007324219,0.9633789,0.08398438,-0.105957,-0.3154297
0,-0.5,-0.125,-0.03076172,0.01513672,0.9750977,0.08398438,-0.105957,-0.3154297
0.3125,-0.0625,0,-0.04248047,0.02685547,0.9829102,0.08740234,-0.1118164,-0.3139648
0,0,-0.4375,-0.03857422,0,0.9829102,0.08740234,-0.1118164,-0.3139648
0.25,-0.4375,-0.125,-0.04248047,-0.01904297,0.9711914,0.08740234,-0.1118164,-0.3139648
-0.125,-0.625,-0.5,-0.01513672,0.003417969,0.9672852,0.08740234,-0.1118164,-0.3139648
0.25,-0.1875,0.3125,-0.04638672,0.01123047,0.9594727,0.08740234,-0.1118164,-0.3139648
-0.0625,0.25,0,-0.04248047,0.007324219,0.9594727,0.08740234,-0.1118164,-0.3139648
-0.125,0,-0.3125,-0.03466797,0.007324219,0.9438477,0.08740234,-0.1118164,-0.3139648
-0.625,-0.625,0.0625,-0.03466797,0.007324219,0.9672852,0.08154297,-0.1108398,-0.3110352
-0.875,-0.375,0,-0.04248047,0.003417969,0.9711914,0.08154297,-0.1108398,-0.3110352
-0.6875,0.125,0,-0.03857422,0.01513672,0.9829102,0.08154297,-0.1108398,-0.3110352
-0.9375,-0.0625,-0.6875,-0.05029297,0.01123047,0.9829102,0.08837891,-0.1108398,-0.3154297
-0.5625,-0.375,-0.5,-0.01513672,0.003417969,0.9633789,0.08837891,-0.1108398,-0.3154297
-0.4375,-0.375,-0.125,-0.03466797,0,0.9829102,0.08837891,-0.1108398,-0.3154297
0,-0.25,-0.1875,-0.03466797,0.01123047,0.9829102,0.08837891,-0.1108398,-0.3154297
-1,-0.3125,0.0625,-0.03076172,0.01123047,0.9672852,0.08837891,-0.1108398,-0.3154297
-0.75,-0.3125,-0.125,-0.05419922,0.007324219,0.9868164,0.08837891,-0.1108398,-0.3154297
-0.4375,-0.3125,-0.1875,-0.03857422,0,0.9633789,0.08837891,-0.1108398,-0.3154297
-0.3125,-0.0625,-0.3125,-0.01513672,0,0.9594727,0.08740234,-0.1201172,-0.3081055
-0.75,-0.375,0,-0.01904297,0.003417969,0.9711914,0.08740234,-0.1201172,-0.3081055
-0.0625,0.5625,0,-0.05029297,0.01123047,0.9555664,0.08740234,-0.1201172,-0.3081055
0,0.125,-0.5,-0.03857422,-0.007324219,0.9868164,0.08496094,-0.109375,-0.3208008
-0.5625,0.1875,-0.25,-0.03466797,0.01123047,0.9516602,0.08496094,-0.109375,-0.3208008
-0.0625,0.1875,0.25,-0.03076172,0.01513672,0.9555664,0.08496094,-0.109375,-0.3208008
-0.375,0.0625,-0.5,-0.04638672,0.003417969,0.9907227,0.08007813,-0.109375,-0.3193359
0.375,0.375,-0.25,-0.02685547,0.003417969,0.9946289,0.08007813,-0.109375,-0.3193359
-0.3125,0,-0.125,0,0.01123047,0.9829102,0.08007813,-0.109375,-0.3193359
0.0625,0.1875,0.0625,-0.02685547,0.01123047,0.9594727,0.08007813,-0.109375,-0.3193359
-0.125,0.0625,-0.125,-0.03076172,0,0.9790039,0.08496094,-0.112793,-0.3071289
-0.8125,0,-0.4375,-0.02685547,0.007324219,0.9907227,0.08496094,-0.112793,-0.3071289
-0.125,0.125,-0.1875,-0.03466797,-0.01513672,0.9672852,0.08496094,-0.112793,-0.3071289
0,-0.4375,-0.6875,-0.05029297,0,0.9633789,0.09179688,-0.1035156,-0.3193359
-0.25,-0.25,0.4375,-0.04638672,-0.01123047,0.9868164,0.09179688,-0.1035156,-0.3193359
-0.125,-0.4375,-0.5625,-0.03466797,-0.003417969,0.9555664,0.09179688,-0.1035156,-0.3193359
-0.5625,-0.1875,0.0625,-0.05029297,0,0.9829102,0.0859375,-0.1010742,-0.3125
-0.625,-0.375,0.25,-0.03466797,0.007324219,0.9711914,0.0859375,-0.1010742,-0.3125
-0.3125,-0.5625,-0.125,-0.04248047,0.003417969,0.9633789,0.0859375,-0.1010742,-0.3125
-0.4375,-0.625,0.125,-0.03857422,0.01123047,1.005859,0.0859375,-0.1010742,-0.3125
-1.25,-0.625,-0.625,-0.03857422,-0.003417969,0.9633789,0.08837891,-0.1069336,-0.3178711
-0.5,-1.0625,0,-0.03857422,0,0.9633789,0.08837891,-0.1069336,-0.3178711
-0.6875,-0.375,0.0625,-0.04638672,-0.01513672,0.9907227,0.08837891,-0.1069336,-0.3178711
-0.3125,-0.5625,-0.125,-0.05419922,0.03076172,0.9594727,0.09082031,-0.1142578,-0.3154297
-0.5625,-1.3125,-0.125,-0.03076172,-0.007324219,0.9750977,0.09082031,-0.1142578,-0.3154297
-1.1875,-0.4375,0.0625,-0.02685547,-0.003417969,0.9907227,0.09082031,-0.1142578,-0.3154297
-1.125,-0.875,0.3125,-0.03076172,0,0.9555664,0.09082031,-0.1118164,-0.3208008
-0.75,-0.6875,-0.0625,-0.03857422,-0.003417969,0.9516602,0.09082031,-0.1118164,-0.3208008
-1,-0.3125,-0.25,-0.05029297,-0.007324219,0.9829102,0.09082031,-0.1118164,-0.3208008
-0.4375,-0.8125,-0.25,-0.02685547,0.003417969,0.9633789,0.09082031,-0.1118164,-0.3208008
-0.625,-1,0.25,-0.05029297,0.007324219,0.9633789,0.09082031,-0.1118164,-0.3208008
-0.6875,-0.8125,-0.1875,-0.02685547,0.003417969,1.001953,0.09082031,-0.1118164,-0.3208008
-0.4375,-0.875,-0.375,-0.03466797,-0.003417969,0.9633789,0.09082031,-0.1118164,-0.3208008
-0.75,-1,-0.0625,-0.03076172,0,0.9829102,0.0859375,-0.1142578,-0.3208008
0,-0.25,0.25,-0.03076172,0.003417969,0.9829102,0.0859375,-0.1142578,-0.3208008
-0.1875,-0.875,-0.375,-0.02685547,0,0.9907227,0.0859375,-0.1142578,-0.3208008
-0.25,0.0625,0,-0.02294922,0.01123047,0.9594727,0.08496094,-0.1118164,-0.3237305
-0.0625,-0.75,0,-0.03466797,-0.003417969,0.9555664,0.08496094,-0.1118164,-0.3237305
-0.125,-0.3125,-0.1875,-0.01513672,0.007324219,0.9711914,0.08496094,-0.1118164,-0.3237305
0.125,-0.5,-0.5,-0.04248047,-0.003417969,0.9633789,0.08740234,-0.112793,-0.3178711
0.0625,-0.1875,-0.3125,-0.01513672,-0.003417969,0.9516602,0.08740234,-0.112793,-0.3178711
0.125,-0.1875,-0.1875,-0.03857422,0.007324219,0.9633789,0.08740234,-0.112793,-0.3178711
0.625,0.125,-0.4375,-0.03466797,-0.007324219,0.9829102,0.08740234,-0.112793,-0.3178711
0.0625,0,-0.4375,-0.03466797,-0.007324219,0.9868164,0.09326172,-0.1069336,-0.3168945
0.1875,-0.25,-0.4375,-0.01513672,-0.01513672,0.9555664,0.09326172,-0.1069336,-0.3168945
-0.125,0.0625,-0.5625,-0.04638672,0,0.9790039,0.09326172,-0.1069336,-0.3168945
0.4375,-0.625,-0.3125,-0.04248047,0.01123047,0.9711914,0.08984375,-0.109375,-0.3266602
0.1875,-0.625,-0.3125,-0.03076172,0.01513672,0.9750977,0.08984375,-0.109375,-0.3266602
0.3125,-0.125,-0.0625,-0.03857422,0,0.9672852,0.08984375,-0.109375,-0.3266602
0,-0.4375,-0.4375,-0.03466797,0.01123047,0.9868164,0.09082031,-0.109375,-0.3178711
0.5,-0.5,-0.375,-0.03076172,0.01513672,0.9829102,0.09082031,-0.109375,-0.3178711
0.125,-0.1875,-0.5625,-0.02685547,-0.01123047,0.9672852,0.09082031,-0.109375,-0.3178711
-0.1875,-0.5625,-0.1875,-0.02685547,0,0.9594727,0.09082031,-0.109375,-0.3178711
0.125,-0.1875,0,-0.03857422,-0.01123047,0.9594727,0.0859375,-0.09912109,-0.3154297
0.5,-0.125,-0.125,-0.05419922,0,0.9829102,0.0859375,-0.09912109,-0.3154297
-0.125,-0.4375,0,-0.01513672,-0.007324219,0.9672852,0.0859375,-0.09912109,-0.3154297
0.4375,-0.4375,-0.375,-0.03076172,0.01513672,0.9829102,0.0859375,-0.109375,-0.3178711
0.5625,-0.25,-0.0625,-0.04248047,-0.003417969,0.9477539,0.0859375,-0.109375,-0.3178711
0.3125,-0.3125,0,-0.04248047,-0.003417969,0.9672852,0.0859375,-0.109375,-0.3178711
0.1875,-0.375,-0.0625,-0.01513672,0.007324219,0.9555664,0.09082031,-0.1142578,-0.3168945
0.3125,-0.125,-0.6875,-0.02294922,0.003417969,0.9829102,0.09082031,-0.1142578,-0.3168945
0.5625,-0.5625,-0.1875,-0.02685547,0.01513672,0.9594727,0.09082031,-0.1142578,-0.3168945
0.8125,0.0625,-0.375,-0.04638672,0.003417969,0.9829102,0.09082031,-0.1142578,-0.3168945
0.4375,0.5,-0.0625,-0.03466797,0.01513672,0.9672852,0.0859375,-0.109375,-0.3237305
1.3125,0.25,-0.1875,-0.04248047,0.01513672,0.9477539,0.0859375,-0.109375,-0.3237305
0.6875,0.25,-0.25,-0.03466797,-0.003417969,0.9477539,0.0859375,-0.109375,-0.3237305
0.75,-0.25,-0.0625,-0.04638672,0,0.9907227,0.08740234,-0.1108398,-0.3168945
0.75,-0.75,0,-0.03076172,0.01123047,0.9477539,0.08740234,-0.1108398,-0.3168945
0.5,-0.625,-0.5625,-0.04638672,-0.007324219,1.001953,0.08740234,-0.1108398,-0.3168945
0.75,-0.25,0.3125,-0.01513672,0.01513672,0.9790039,0.08984375,-0.112793,-0.3125
0.0625,-0.625,0.25,-0.05029297,0.01513672,0.9790039,0.08984375,-0.112793,-0.3125
0,-0.6875,-0.375,-0.02685547,0.01513672,0.9672852,0.08984375,-0.112793,-0.3125
0,-0.4375,-0.4375,-0.04248047,0,0.9633789,0.08984375,-0.112793,-0.3125
0.125,-0.5,0.0625,-0.02685547,0.01513672,0.9633789,0.08984375,-0.112793,-0.3125
-0.1875,-1.25,-0.25,-0.03076172,0.003417969,0.9555664,0.08984375,-0.112793,-0.3125
-0.0625,-1.3125,-0.1875,-0.03076172,0.01123047,0.9907227,0.08984375,-0.112793,-0.3125
-0.125,-1.125,-0.125,-0.01513672,-0.01513672,0.9750977,0.08007813,-0.112793,-0.3251953
-0.25,-1.0625,0,-0.03076172,0.007324219,0.9672852,0.08007813,-0.112793,-0.3251953
-0.375,-0.5,0.0625,-0.01513672,-0.01513672,0.9594727,0.08007813,-0.112793,-0.3251953
0,-0.875,-0.25,-0.03076172,0.007324219,0.9594727,0.0859375,-0.109375,-0.3178711
-0.875,-1.0625,-0.625,-0.03076172,0,0.9711914,0.0859375,-0.109375,-0.3178711
-0.25,-1,-0.25,-0.04248047,0.003417969,0.9711914,0.0859375,-0.109375,-0.3178711
0,-0.75,0.3125,-0.01123047,-0.003417969,0.9672852,0.0859375,-0.109375,-0.3178711
0,-1.375,0,-0.03466797,0.003417969,0.9516602,0.0859375,-0.109375,-0.3178711
0.625,-1.375,-0.0625,-0.04638672,0.01904297,0.9829102,0.0859375,-0.109375,-0.3178711
-0.25,-0.9375,-0.1875,-0.05029297,-0.01513672,0.9750977,0.0859375,-0.109375,-0.3178711
-0.1875,-1.6875,0,-0.05029297,-0.003417969,0.9711914,0.09179688,-0.1049805,-0.3110352
-0.5,-1.0625,-0.25,-0.03466797,0.003417969,0.9829102,0.09179688,-0.1049805,-0.3110352
-0.25,-1.0625,0.5625,-0.03466797,-0.003417969,0.9829102,0.09179688,-0.1049805,-0.3110352
-0.625,-1.6875,0,-0.03466797,0.003417969,0.9555664,0.0859375,-0.1162109,-0.3237305
-1.125,-0.875,0.25,-0.01513672,0,0.9672852,0.0859375,-0.1162109,-0.3237305
-0.5,-0.375,0.3125,-0.01513672,0.003417969,0.9829102,0.0859375,-0.1162109,-0.3237305
-0.75,-1.1875,-0.25,-0.01513672,-0.003417969,0.9907227,0.08496094,-0.1176758,-0.3154297
-1.125,-1.5,0.3125,-0.03466797,-0.003417969,0.9711914,0.08496094,-0.1176758,-0.3154297
-0.25,-1.5,0.125,-0.04248047,0.003417969,0.9750977,0.08496094,-0.1176758,-0.3154297
-1.8125,-1.625,0.4375,-0.04638672,0.003417969,0.9829102,0.08496094,-0.1176758,-0.3154297
-1.125,-1.6875,0,-0.04638672,0,0.9672852,0.0859375,-0.1162109,-0.3168945
-1.125,-1.3125,0.5,-0.01513672,0.02294922,0.9477539,0.0859375,-0.1162109,-0.3168945
-1,-1.5,-0.1875,-0.02294922,-0.003417969,0.9790039,0.0859375,-0.1162109,-0.3168945
-0.6875,-1.9375,-0.3125,-0.03466797,0.003417969,0.9672852,0.09179688,-0.1083984,-0.3139648
-0.9375,-1.0625,0.125,-0.03076172,0.007324219,0.9672852,0.09179688,-0.1083984,-0.3139648
-0.25,-0.8125,-0.3125,-0.03466797,0.007324219,0.9633789,0.09179688,-0.1083984,-0.3139648
0.3125,-0.75,-0.25,-0.03466797,0,0.9711914,0.08496094,-0.109375,-0.3081055
0.1875,-0.8125,-0.4375,-0.01513672,0.02294922,0.9868164,0.08496094,-0.109375,-0.3081055
-0.6875,-0.625,-0.3125,-0.02685547,-0.007324219,0.9829102,0.08496094,-0.109375,-0.3081055
-0.3125,0,-0.1875,-0.02294922,-0.01513672,0.9672852,0.08496094,-0.109375,-0.3081055
0,0,-0.4375,-0.04248047,-0.003417969,0.9790039,0.08837891,-0.105957,-0.3193359
0,0.3125,-0.5625,-0.03076172,-0.003417969,0.9750977,0.08837891,-0.105957,-0.3193359
-0.125,-0.4375,-0.4375,-0.02685547,0,0.9711914,0.08837891,-0.105957,-0.3193359
0.75,0.375,-0.4375,-0.03466797,0.003417969,0.9633789,0.0859375,-0.105957,-0.3193359
-0.1875,-0.1875,-0.625,-0.03076172,-0.003417969,0.9672852,0.0859375,-0.105957,-0.3193359
-0.3125,-0.0625,-0.4375,-0.02685547,0.01123047,0.9711914,0.0859375,-0.105957,-0.3193359
0.6875,-0.3125,-0.5,-0.04638672,0.007324219,0.9829102,0.08154297,-0.1142578,-0.3168945
0.5,-0.4375,-0.4375,-0.04248047,0.03076172,0.9672852,0.08154297,-0.1142578,-0.3168945
0.25,0.375,-0.625,-0.02685547,-0.003417969,0.9711914,0.08154297,-0.1142578,-0.3168945
-0.25,0.0625,-0.8125,-0.02294922,0.03076172,0.9594727,0.08154297,-0.1142578,-0.3168945
-0.1875,0.3125,-0.125,-0.03076172,0.003417969,0.9633789,0.08154297,-0.1142578,-0.3168945
0.6875,0.1875,-0.375,-0.02685547,0.01123047,0.9711914,0.08154297,-0.1142578,-0.3168945
0.9375,1.375,-0.625,-0.03076172,-0.01513672,0.9555664,0.08154297,-0.1142578,-0.3168945
0.6875,0.8125,-0.4375,-0.01904297,-0.003417969,0.9829102,0.0859375,-0.1083984,-0.3125
0.9375,1.1875,-0.1875,-0.03857422,0.01904297,0.9633789,0.0859375,-0.1083984,-0.3125
0.75,1,-0.5,-0.03857422,-0.003417969,0.9750977,0.0859375,-0.1083984,-0.3125
0.75,1.5,-0.625,-0.03857422,0.01123047,0.9594727,0.08837891,-0.1118164,-0.3193359
0.5,0.5,-0.375,-0.05029297,0.01123047,0.9477539,0.08837891,-0.1118164,-0.3193359
0.9375,1.4375,-0.3125,-0.02685547,-0.007324219,0.9633789,0.08837891,-0.1118164,-0.3193359
-0.0625,1.125,-0.3125,-0.03466797,0,0.9711914,0.09179688,-0.1069336,-0.3266602
1,0.75,-0.3125,-0.03466797,0,0.9711914,0.09179688,-0.1069336,-0.3266602
0.125,1.3125,-0.75,-0.04248047,-0.003417969,0.9829102,0.09179688,-0.1069336,-0.3266602
0.75,0.5625,-0.8125,-0.02294922,-0.003417969,0.9868164,0.09179688,-0.1069336,-0.3266602
0.8125,0.6875,-0.3125,-0.03076172,-0.02294922,0.9516602,0.09082031,-0.1049805,-0.3154297
0.3125,0.375,-0.6875,-0.04638672,0.003417969,0.9633789,0.09082031,-0.1049805,-0.3154297
0.5625,0.3125,-0.1875,-0.05029297,0.007324219,0.9829102,0.09082031,-0.1049805,-0.3154297
0.625,0.6875,-0.25,-0.05029297,-0.003417969,0.9633789,0.08251953,-0.1162109,-0.3125
0.9375,0.5,-0.625,-0.05029297,-0.003417969,0.9868164,0.08251953,-0.1162109,-0.3125
0.25,0.1875,-0.5,-0.01123047,0.003417969,0.9711914,0.08251953,-0.1162109,-0.3125
0.1875,0,-0.5,-0.03857422,0.003417969,0.9633789,0.09765625,-0.105957,-0.3266602
0.1875,0.3125,-0.25,-0.03857422,0,0.9829102,0.09765625,-0.105957,-0.3266602
-0.25,-0.1875,0,-0.03076172,0.003417969,0.9829102,0.09765625,-0.105957,-0.3266602
0.1875,-0.5625,-0.5625,-0.04248047,0.01513672,0.9829102,0.09765625,-0.105957,-0.3266602
-0.3125,-0.375,-0.1875,-0.01904297,0.01123047,0.9868164,0.09765625,-0.1108398,-0.3168945
0.1875,-0.25,-0.125,-0.04248047,-0.01123047,0.9711914,0.09765625,-0.1108398,-0.3168945
-0.125,-1,-0.25,-0.05029297,0.003417969,0.9672852,0.09765625,-0.1108398,-0.3168945
0.25,-0.3125,-0.5,-0.03466797,-0.003417969,0.9829102,0.0859375,-0.109375,-0.3154297
-0.4375,-0.9375,-0.6875,-0.05029297,-0.007324219,0.9711914,0.0859375,-0.109375,-0.3154297
-0.3125,-0.5625,0.0625,-0.03857422,0.007324219,0.9633789,0.0859375,-0.109375,-0.3154297
-0.3125,-1,-0.75,-0.01513672,-0.003417969,0.9594727,0.08496094,-0.105957,-0.3251953
-0.125,-1.125,-0.5625,-0.03076172,-0.02294922,0.9711914,0.08496094,-0.105957,-0.3251953
0,-0.375,0,-0.03466797,-0.007324219,0.9868164,0.08496094,-0.105957,-0.3251953
0.1875,-0.375,-0.5,-0.03857422,-0.007324219,0.9516602,0.08496094,-0.105957,-0.3251953
-0.125,-0.25,0.0625,-0.02685547,-0.003417969,0.9555664,0.09179688,-0.1118164,-0.3178711
0.375,-0.375,-0.25,-0.03076172,0.01513672,0.9711914,0.09179688,-0.1118164,-0.3178711
0.1875,0.5,-0.0625,-0.01123047,0.007324219,0.9829102,0.09179688,-0.1118164,-0.3178711
0.375,0,-0.625,-0.02685547,0,0.9829102,0.09179688,-0.1069336,-0.3168945
0.4375,-0.1875,-0.125,-0.04248047,0.007324219,0.9907227,0.09179688,-0.1069336,-0.3168945
0.1875,0.0625,-0.125,-0.02294922,-0.003417969,0.9633789,0.09179688,-0.1069336,-0.3168945
-0.1875,-0.1875,0.25,-0.03076172,-0.01513672,0.9672852,0.08740234,-0.1069336,-0.3095703
-0.375,0.375,0,-0.04638672,-0.02294922,0.9750977,0.08740234,-0.1069336,-0.3095703
-0.125,-0.4375,-0.0625,-0.04638672,-0.003417969,0.9750977,0.08740234,-0.1069336,-0.3095703
-0.125,-0.375,0,-0.01513672,0,0.9829102,0.08740234,-0.1069336,-0.3095703
-0.0625,-0.375,-0.0625,-0.03857422,0.01904297,0.9633789,0.08740234,-0.1069336,-0.3095703
0.0625,-0.3125,0,-0.03076172,0.007324219,0.9829102,0.08740234,-0.1069336,-0.3095703
-0.3125,0.0625,-0.0625,-0.04248047,0.007324219,1.001953,0.08740234,-0.1069336,-0.3095703
0,0,-0.1875,-0.01513672,0.007324219,0.9672852,0.08496094,-0.1152344,-0.3125
0.375,0,-0.1875,-0.02685547,-0.007324219,0.9477539,0.08496094,-0.1152344,-0.3125
0.0625,0.1875,-0.4375,-0.02294922,0.007324219,0.9750977,0.08496094,-0.1152344,-0.3125
0,0.6875,0.0625,-0.02294922,0.007324219,0.9750977,0.0859375,-0.105957,-0.3168945
0,0.375,-0.75,-0.03076172,0.02294922,0.9477539,0.0859375,-0.105957,-0.3168945
0.375,0,-0.625,-0.03857422,0.003417969,0.9711914,0.0859375,-0.105957,-0.3168945
0.3125,0.25,-0.5625,-0.03857422,-0.007324219,0.9672852,0.0859375,-0.105957,-0.3168945
0.6875,1.375,-0.3125,-0.02685547,0.01513672,1.001953,0.0859375,-0.105957,-0.3168945
0.5,-0.0625,-0.4375,-0.03466797,0.007324219,0.9829102,0.0859375,-0.105957,-0.3168945
-0.25,0.375,-0.5,-0.01123047,0.003417969,0.9438477,0.0859375,-0.105957,-0.3168945
0.9375,0.6875,-0.3125,-0.03857422,0,0.9633789,0.08984375,-0.1152344,-0.3110352
0.25,0.3125,-0.5,-0.03466797,-0.01513672,1.001953,0.08984375,-0.1152344,-0.3110352
0,0.5,-0.5,-0.04638672,-0.007324219,0.9750977,0.08984375,-0.1152344,-0.3110352
0.3125,0.5,-0.3125,-0.01513672,-0.003417969,0.9907227,0.08837891,-0.1083984,-0.3125
-0.0625,0.0625,-0.5625,-0.04638672,0,0.9946289,0.08837891,-0.1083984,-0.3125
-0.25,0.1875,-0.1875,-0.04248047,0.01513672,0.9711914,0.08837891,-0.1083984,-0.3125
0.125,0.125,-0.5625,-0.02685547,-0.007324219,0.9829102,0.08398438,-0.1069336,-0.3125
0.0625,0.75,-0.1875,-0.01513672,0,0.9829102,0.08398438,-0.1069336,-0.3125
0.3125,0.375,0,-0.05810547,0.01123047,0.9750977,0.08398438,-0.1069336,-0.3125
0,0,-0.25,-0.05029297,-0.003417969,0.9711914,0.08398438,-0.1069336,-0.3125
0,0.5625,-0.25,-0.01513672,-0.003417969,0.9829102,0.08984375,-0.1108398,-0.3095703
0.125,0.5625,-0.3125,-0.02294922,0,0.9711914,0.08984375,-0.1108398,-0.3095703
-0.0625,-0.1875,-0.25,-0.03857422,0.003417969,0.9672852,0.08984375,-0.1108398,-0.3095703
-0.3125,0.3125,-0.0625,-0.01513672,-0.02294922,0.9633789,0.09082031,-0.1118164,-0.3081055
-0.5625,0.4375,-0.0625,-0.02685547,0.007324219,0.9633789,0.09082031,-0.1118164,-0.3081055
-0.5,0.125,0.0625,-0.03857422,-0.01513672,0.9829102,0.09082031,-0.1118164,-0.3081055
-0.75,0,0,-0.05029297,0.003417969,0.9555664,0.0859375,-0.1118164,-0.3095703
-0.6875,0.1875,-0.25,-0.03466797,0.007324219,0.9946289,0.0859375,-0.1118164,-0.3095703
-0.25,0.0625,-0.1875,-0.03466797,0,0.9633789,0.0859375,-0.1118164,-0.3095703
-0.375,-0.0625,-0.3125,-0.01513672,-0.01513672,0.9868164,0.0859375,-0.1118164,-0.3095703
-0.375,0.125,0.3125,-0.01513672,0.003417969,0.9829102,0.09326172,-0.1083984,-0.3178711
-0.125,0.375,-0.25,-0.03857422,0.01123047,0.9672852,0.09326172,-0.1083984,-0.3178711
-0.3125,-0.3125,0.125,-0.03857422,0,0.9516602,0.09326172,-0.1083984,-0.3178711
0.25,-0.4375,-0.6875,-0.01513672,0.007324219,0.9594727,0.08837891,-0.1010742,-0.3095703
-0.125,0.125,0,-0.01123047,0.003417969,0.9868164,0.08837891,-0.1010742,-0.3095703
-0.125,0.4375,0.0625,-0.04248047,0.01513672,1.001953,0.08837891,-0.1010742,-0.3095703
0.0625,-0.3125,-0.375,-0.03466797,0.007324219,0.9829102,0.08740234,-0.1069336,-0.3193359
0.25,-0.25,-0.4375,-0.01513672,0,0.9829102,0.08740234,-0.1069336,-0.3193359
-0.0625,-0.25,-0.3125,-0.01513672,0,0.9829102,0.08740234,-0.1069336,-0.3193359
0.0625,0,-0.25,-0.04248047,-0.01123047,0.9672852,0.08740234,-0.1069336,-0.3193359
0,-0.6875,-0.375,-0.01513672,-0.003417969,0.9829102,0.08740234,-0.1069336,-0.3193359
-0.125,-0.1875,-0.125,-0.03466797,0.003417969,0.9711914,0.08740234,-0.1069336,-0.3193359
-0.375,0,-0.6875,-0.03466797,0.003417969,0.9633789,0.08740234,-0.1069336,-0.3193359
0.1875,-0.375,-0.0625,-0.01513672,0.003417969,0.9594727,0.08984375,-0.1069336,-0.3168945
0.0625,0,-0.125,-0.04248047,-0.007324219,0.9477539,0.08984375,-0.1069336,-0.3168945
0.0625,0.625,-0.125,-0.003417969,0.03076172,0.9907227,0.08984375,-0.1069336,-0.3168945
0.4375,0.25,-0.5,-0.03076172,-0.01513672,0.9868164,0.09765625,-0.112793,-0.3081055
0.0625,0.4375,-0.0625,-0.05029297,0.007324219,1.001953,0.09765625,-0.112793,-0.3081055
0.125,-0.1875,-0.375,-0.04248047,-0.01513672,0.9868164,0.09765625,-0.112793,-0.3081055
0.3125,-0.0625,-0.125,-0.03076172,0.01513672,0.9829102,0.09765625,-0.112793,-0.3081055
0,-0.3125,-0.1875,-0.01513672,0.007324219,0.9516602,0.09765625,-0.112793,-0.3081055
0.3125,-0.6875,-0.625,-0.03466797,-0.007324219,0.9633789,0.09765625,-0.112793,-0.3081055
0.125,-0.25,-0.0625,-0.02294922,-0.007324219,0.9829102,0.09765625,-0.112793,-0.3081055
0.4375,-0.375,-0.3125,-0.01513672,0.003417969,0.9672852,0.0859375,-0.1142578,-0.3110352
0,0.0625,0,-0.03466797,0,0.9790039,0.0859375,-0.1142578,-0.3110352
0,-0.5625,-0.25,-0.05029297,0.03076172,0.9750977,0.0859375,-0.1142578,-0.3110352
0.25,-0.125,-0.3125,-0.01123047,-0.003417969,0.9829102,0.08154297,-0.1176758,-0.3193359
0.5,-0.1875,-0.3125,-0.007324219,0.01123047,0.9829102,0.08154297,-0.1176758,-0.3193359
0,-0.25,-0.1875,-0.03857422,-0.01513672,0.9829102,0.08154297,-0.1176758,-0.3193359
0.375,-1,-0.5,-0.05029297,0.007324219,0.9633789,0.08740234,-0.1010742,-0.3154297
-0.125,0,-0.5625,-0.03076172,0,0.9750977,0.08740234,-0.1010742,-0.3154297
0.25,-0.5,0.1875,-0.03466797,0.003417969,0.9672852,0.08740234,-0.1010742,-0.3154297
0.25,-0.625,-0.0625,-0.03076172,0.01513672,0.9594727,0.08740234,-0.1010742,-0.3154297
-0.5,-0.6875,-0.75,-0.05419922,0.007324219,0.9750977,0.0859375,-0.112793,-0.3125
-0.5,-0.5,0.125,-0.03857422,0.007324219,0.9672852,0.0859375,-0.112793,-0.3125
0.3125,-0.375,-0.0625,-0.02685547,-0.007324219,0.9633789,0.0859375,-0.112793,-0.3125
-0.1875,-0.5,0,-0.03466797,0.003417969,0.9829102,0.09179688,-0.09912109,-0.3276367
-0.125,-0.125,0,-0.04248047,-0.003417969,0.9711914,0.09179688,-0.09912109,-0.3276367
-0.0625,-0.5,-0.25,-0.03466797,0.007324219,0.9633789,0.09179688,-0.09912109,-0.3276367
-0.3125,-0.25,-0.5625,-0.02294922,0,0.9829102,0.08154297,-0.1108398,-0.3237305
-0.0625,-0.6875,-0.375,-0.02685547,0,0.9829102,0.08154297,-0.1108398,-0.3237305
-0.1875,-0.5625,0,-0.01513672,-0.003417969,0.9829102,0.08154297,-0.1108398,-0.3237305
-0.3125,-0.0625,-0.375,-0.02294922,0.01513672,0.9672852,0.08154297,-0.1108398,-0.3237305
0.375,-0.625,-0.375,-0.03466797,0,0.9750977,0.08837891,-0.1108398,-0.3139648
-0.5,-0.375,0,-0.04248047,0,0.9633789,0.08837891,-0.1108398,-0.3139648
0,-0.375,-0.1875,-0.02685547,0,0.9633789,0.08837891,-0.1108398,-0.3139648
-0.5625,-0.5,-0.25,-0.03076172,0.01123047,0.9711914,0.08837891,-0.109375,-0.3154297
-0.125,0,-0.4375,-0.04248047,0.003417969,0.9594727,0.08837891,-0.109375,-0.3154297
0.5625,-0.8125,-0.3125,-0.04248047,-0.003417969,0.9711914,0.08837891,-0.109375,-0.3154297
0.0625,-0.5625,-0.3125,-0.03857422,0.01513672,0.9790039,0.09326172,-0.109375,-0.3193359
-0.25,-0.125,-0.3125,-0.04248047,-0.003417969,0.9829102,0.09326172,-0.109375,-0.3193359
0,-0.4375,0,-0.01513672,0.01123047,0.9790039,0.09326172,-0.109375,-0.3193359
0.1875,-0.5,-0.5,-0.03076172,0.007324219,0.9868164,0.09326172,-0.109375,-0.3193359
-0.25,-0.6875,-0.375,-0.03076172,0,0.9790039,0.09326172,-0.109375,-0.3193359
0.125,-0.5,-0.1875,-0.02685547,0.003417969,0.9946289,0.09326172,-0.109375,-0.3193359
-0.5,-0.5,-0.4375,-0.03076172,-0.01513672,0.9711914,0.09326172,-0.109375,-0.3193359
0.1875,-0.375,-0.6875,-0.04248047,0,0.9829102,0.09667969,-0.109375,-0.3178711
-0.125,-0.3125,-0.8125,-0.01513672,-0.01123047,0.9594727,0.09667969,-0.109375,-0.3178711
0,0,-0.125,-0.02294922,0,0.9672852,0.09667969,-0.109375,-0.3178711
-0.125,-0.125,-0.3125,-0.03076172,-0.003417969,0.9829102,0.08740234,-0.112793,-0.3168945
0.0625,0.375,-0.375,-0.007324219,-0.007324219,0.9516602,0.08740234,-0.112793,-0.3168945
0.0625,-0.25,-0.25,-0.01513672,-0.007324219,0.9516602,0.08740234,-0.112793,-0.3168945
0,-0.375,-0.4375,-0.04248047,0,0.9829102,0.08740234,-0.112793,-0.3168945
0,-0.125,-0.375,-0.03076172,0.007324219,0.9672852,0.08740234,-0.112793,-0.3168945
0.125,-0.5625,-0.5625,-0.02294922,-0.003417969,0.9672852,0.08740234,-0.112793,-0.3168945
0,-0.375,-0.5,-0.03076172,0.007324219,0.9711914,0.08740234,-0.112793,-0.3168945
0.125,-0.125,-0.5625,0.003417969,-0.01123047,0.9438477,0.08154297,-0.1049805,-0.3178711
0.1875,-0.0625,-0.4375,-0.003417969,0.01123047,0.9594727,0.08154297,-0.1049805,-0.3178711
0.3125,0.4375,-0.1875,-0.01513672,0.003417969,0.9594727,0.08154297,-0.1049805,-0.3178711
0.3125,-0.125,-0.5625,-0.04638672,-0.01904297,0.9594727,0.08984375,-0.1162109,-0.3193359
0,-0.125,-0.375,-0.03466797,0.007324219,0.9868164,0.08984375,-0.1162109,-0.3193359
1,0.0625,0.125,-0.01513672,0.007324219,0.9829102,0.08984375,-0.1162109,-0.3193359
0.125,-0.1875,-0.4375,-0.02294922,0,0.9750977,0.08837891,-0.1118164,-0.3154297
-0.3125,-0.5625,-0.375,-0.03466797,0.01123047,0.9555664,0.08837891,-0.1118164,-0.3154297
0.3125,0.1875,-0.8125,-0.04638672,-0.007324219,0.9555664,0.08837891,-0.1118164,-0.3154297
-0.125,-0.3125,-0.4375,-0.02294922,0,0.9829102,0.08837891,-0.1118164,-0.3154297
0.3125,-0.4375,-0.4375,-0.05029297,-0.01123047,0.9672852,0.08398438,-0.1069336,-0.3222656
0.3125,-0.1875,-0.625,-0.03076172,0,0.9750977,0.08398438,-0.1069336,-0.3222656
0.0625,0.25,-0.5625,-0.03076172,-0.007324219,0.9633789,0.08398438,-0.1069336,-0.3222656
0.875,0,-0.125,-0.04638672,0.01123047,0.9829102,0.08740234,-0.1142578,-0.3139648
-0.0625,-0.0625,-0.5,-0.01513672,0.01513672,0.9633789,0.08740234,-0.1142578,-0.3139648
0.6875,0.25,-0.4375,-0.03466797,-0.003417969,0.9829102,0.08740234,-0.1142578,-0.3139648
0,-0.0625,-0.5625,-0.03076172,0.01123047,0.9829102,0.08837891,-0.1069336,-0.3110352
0.6875,0.375,-0.375,-0.03466797,0,0.9829102,0.08837891,-0.1069336,-0.3110352
0.1875,0.5625,-0.625,-0.01513672,0,0.9829102,0.08837891,-0.1069336,-0.3110352
0.75,-0.6875,0,-0.01513672,0,0.9750977,0.08837891,-0.1069336,-0.3110352
0,-0.25,-0.8125,-0.01513672,0.01123047,0.9790039,0.08496094,-0.1049805,-0.3154297
0,-0.1875,-0.1875,-0.03076172,-0.003417969,0.9829102,0.08496094,-0.1049805,-0.3154297
-0.0625,0.25,-0.75,-0.03076172,-0.007324219,0.9555664,0.08496094,-0.1049805,-0.3154297
0.375,-0.1875,-0.25,-0.03466797,0.007324219,0.9907227,0.08837891,-0.1118164,-0.3208008
-0.375,0.0625,-0.25,-0.03076172,0.01513672,0.9829102,0.08837891,-0.1118164,-0.3208008
-0.1875,0.25,-0.625,-0.02294922,0.01513672,0.9399414,0.08837891,-0.1118164,-0.3208008
0.75,0.125,-0.4375,-0.03076172,0.003417969,0.9672852,0.09326172,-0.1108398,-0.3222656
0.3125,-0.25,-0.75,-0.01904297,0.003417969,0.9711914,0.09326172,-0.1108398,-0.3222656
0.4375,0.0625,-0.0625,-0.03857422,0.007324219,0.9672852,0.09326172,-0.1108398,-0.3222656
0.375,-0.375,-0.5,-0.01904297,0.003417969,0.9594727,0.09326172,-0.1108398,-0.3222656
-0.0625,-0.0625,-0.4375,-0.03466797,0.007324219,0.9711914,0.09326172,-0.1108398,-0.3222656
1.0625,-0.3125,-0.375,-0.04638672,-0.003417969,0.9868164,0.09326172,-0.1108398,-0.3222656
0.375,-0.3125,-0.3125,-0.02685547,-0.007324219,0.9711914,0.09326172,-0.1108398,-0.3222656
0.4375,0.3125,-0.625,-0.03857422,-0.003417969,0.9829102,0.08154297,-0.1049805,-0.3139648
0.5,0.3125,-1.1875,-0.01904297,0,0.9516602,0.08154297,-0.1049805,-0.3139648
0.125,0.5,-0.6875,-0.03076172,0,0.9672852,0.08154297,-0.1049805,-0.3139648
1,0.25,-0.6875,-0.05029297,0.003417969,0.9829102,0.09179688,-0.1118164,-0.3168945
0.1875,0,-0.75,-0.03466797,-0.003417969,0.9594727,0.09179688,-0.1118164,-0.3168945
0.8125,0.5625,-0.5,-0.03857422,0.01513672,0.9829102,0.09179688,-0.1118164,-0.3168945
0.3125,0.1875,-0.8125,-0.01513672,0.007324219,0.9907227,0.09179688,-0.1118164,-0.3168945
0.3125,0.375,-0.125,-0.03076172,0.007324219,0.9907227,0.09179688,-0.1118164,-0.3168945
-0.1875,0.125,-0.5,-0.02685547,0,0.9711914,0.09179688,-0.1118164,-0.3168945
0.4375,0.4375,-0.75,-0.01904297,0.007324219,0.9750977,0.09179688,-0.1118164,-0.3168945
0.625,-0.4375,-0.8125,-0.03857422,0,0.9555664,0.08740234,-0.109375,-0.3125
1.125,-0.6875,-0.3125,-0.03857422,-0.01513672,0.9790039,0.08740234,-0.109375,-0.3125
0.1875,0.3125,-0.5,-0.03076172,-0.01513672,0.9750977,0.08740234,-0.109375,-0.3125
0.5,0.5625,-0.125,-0.03466797,0.003417969,0.9829102,0.0859375,-0.1142578,-0.3208008
0,0.3125,-0.375,-0.01513672,-0.01904297,0.9907227,0.0859375,-0.1142578,-0.3208008
0.4375,-0.1875,-0.375,-0.03076172,0.003417969,0.9829102,0.0859375,-0.1142578,-0.3208008
0.0625,-0.375,-0.3125,-0.05810547,-0.01123047,0.9829102,0.08984375,-0.1152344,-0.3110352
0.5,-0.625,-1.125,-0.04248047,-0.003417969,0.9672852,0.08984375,-0.1152344,-0.3110352
0.25,-0.375,-0.4375,-0.01513672,0.003417969,0.9790039,0.08984375,-0.1152344,-0.3110352
-0.125,-0.0625,-0.75,-0.02685547,0.01123047,0.9829102,0.08984375,-0.1152344,-0.3110352
0.5625,0.25,-0.5625,-0.03857422,0.01123047,0.9633789,0.08154297,-0.112793,-0.3168945
0.375,0.125,-0.375,-0.03857422,0.003417969,0.9868164,0.08154297,-0.112793,-0.3168945
0.4375,-0.0625,-0.9375,-0.01513672,-0.01123047,0.9711914,0.08154297,-0.112793,-0.3168945
0.1875,-0.3125,-0.125,-0.05029297,0.01513672,0.9868164,0.08740234,-0.1069336,-0.3125
0.375,0.375,-0.5,-0.02685547,0,0.9399414,0.08740234,-0.1069336,-0.3125
0.0625,0.1875,-0.4375,-0.03466797,0.007324219,0.9750977,0.08740234,-0.1069336,-0.3125
0.5,-0.1875,-0.5625,-0.03466797,0.007324219,0.9790039,0.08984375,-0.1108398,-0.3208008
0.4375,-0.3125,-0.4375,-0.03076172,0.01123047,0.9829102,0.08984375,-0.1108398,-0.3208008
0.25,0.5,-0.625,-0.03076172,0.01513672,0.9555664,0.08984375,-0.1108398,-0.3208008
0.375,-0.3125,-0.625,-0.03076172,0,0.9555664,0.08984375,-0.1108398,-0.3208008
0.1875,-0.3125,-0.6875,-0.02685547,-0.003417969,0.9829102,0.08984375,-0.1118164,-0.3168945
0.3125,-0.375,-0.9375,-0.03857422,0.003417969,0.9672852,0.08984375,-0.1118164,-0.3168945
0.1875,-0.25,-0.0625,-0.03857422,-0.007324219,0.9672852,0.08984375,-0.1118164,-0.3168945
0.125,-0.4375,-0.125,-0.04248047,0,0.9790039,0.09423828,-0.1118164,-0.3266602
0.1875,-0.1875,-0.125,-0.01513672,0.01123047,0.9829102,0.09423828,-0.1118164,-0.3266602
0.1875,-0.0625,-0.1875,-0.03857422,0.01513672,0.9711914,0.09423828,-0.1118164,-0.3266602
0,-0.1875,-0.375,-0.03857422,0.007324219,0.9711914,0.09179688,-0.105957,-0.3237305
0.3125,-0.875,-0.25,-0.03466797,0.01513672,0.9672852,0.09179688,-0.105957,-0.3237305
0.9375,-0.1875,-0.375,-0.04248047,0.003417969,0.9672852,0.09179688,-0.105957,-0.3237305
-0.25,-0.625,-0.25,-0.02685547,-0.003417969,0.9633789,0.09179688,-0.105957,-0.3237305
-0.0625,-0.5625,-0.0625,-0.03076172,-0.01123047,0.9711914,0.09179688,-0.105957,-0.3237305
-0.0625,-0.125,-0.125,-0.04248047,-0.01513672,0.9829102,0.09179688,-0.105957,-0.3237305
0.3125,0.1875,-0.375,-0.04248047,0,0.9829102,0.09179688,-0.105957,-0.3237305
0,-0.0625,-0.4375,-0.03466797,0.007324219,0.9555664,0.08251953,-0.109375,-0.3178711
0.6875,-0.0625,-0.3125,-0.01513672,0.007324219,0.9711914,0.08251953,-0.109375,-0.3178711
0,0.1875,-0.875,-0.03076172,0.02294922,0.9829102,0.08251953,-0.109375,-0.3178711
0.6875,0.3125,-0.5,-0.03857422,-0.01904297,0.9516602,0.09082031,-0.109375,-0.3168945
0.75,-0.375,-0.75,-0.03076172,0.003417969,0.9594727,0.09082031,-0.109375,-0.3168945
0.5625,0.0625,-0.9375,-0.03076172,-0.003417969,0.9829102,0.09082031,-0.109375,-0.3168945
0,0.1875,-0.25,-0.05029297,0,0.9711914,0.09082031,-0.109375,-0.3168945
0.4375,0.6875,-0.25,-0.02294922,0.003417969,0.9672852,0.09082031,-0.109375,-0.3168945
0.3125,0.25,-0.5625,-0.03466797,-0.02294922,0.9516602,0.09082031,-0.109375,-0.3168945
0.8125,-0.0625,-0.5625,-0.02294922,-0.007324219,0.9790039,0.09082031,-0.109375,-0.3168945
0.5625,-0.125,0,-0.02294922,-0.01123047,0.9633789,0.09326172,-0.109375,-0.3266602
0.25,0.0625,-0.625,-0.03076172,-0.01513672,0.9868164,0.09326172,-0.109375,-0.3266602
0.5,0,-0.4375,-0.03466797,-0.003417969,0.9555664,0.09326172,-0.109375,-0.3266602
-0.125,0.0625,-0.625,-0.02294922,-0.01513672,0.9672852,0.08984375,-0.112793,-0.3110352
-0.125,0.3125,-0.3125,-0.03857422,0.01513672,0.9750977,0.08984375,-0.112793,-0.3110352
0.125,-0.3125,-0.4375,-0.04248047,-0.003417969,0.9672852,0.08984375,-0.112793,-0.3110352
-0.25,0.5,-0.4375,-0.03466797,0.01513672,0.9672852,0.08398438,-0.109375,-0.3276367
0.1875,0.0625,-0.1875,-0.03857422,-0.007324219,0.9829102,0.08398438,-0.109375,-0.3276367
0.375,-0.0625,-0.625,-0.03466797,-0.007324219,0.9829102,0.08398438,-0.109375,-0.3276367
-0.0625,0,0,-0.03076172,0.003417969,0.9633789,0.08398438,-0.109375,-0.3276367
0.0625,-0.3125,-0.4375,-0.04248047,0.007324219,0.9555664,0.08984375,-0.1108398,-0.3139648
-0.0625,-0.5625,-0.0625,-0.03466797,0,0.9750977,0.08984375,-0.1108398,-0.3139648
-0.25,-0.4375,-0.4375,-0.03857422,0,0.9946289,0.08984375,-0.1108398,-0.3139648
-0.125,-0.4375,-0.4375,-0.03076172,0.01513672,0.9711914,0.08837891,-0.1118164,-0.3276367
-0.125,-0.1875,-0.5,-0.03466797,-0.007324219,0.9829102,0.08837891,-0.1118164,-0.3276367
0.1875,-0.0625,0,-0.02685547,0,0.9672852,0.08837891,-0.1118164,-0.3276367
0.25,0.125,-0.0625,-0.03076172,-0.007324219,0.9594727,0.07910156,-0.1108398,-0.3168945
0.5,0,0,-0.01513672,0.007324219,0.9985352,0.07910156,-0.1108398,-0.3168945
0,-0.4375,-0.0625,-0.04248047,-0.003417969,0.9907227,0.07910156,-0.1108398,-0.3168945
0.1875,-0.25,0.3125,-0.01513672,-0.003417969,0.9790039,0.07910156,-0.1108398,-0.3168945
0.1875,-0.375,-0.5,-0.03076172,0.003417969,0.9672852,0.09179688,-0.112793,-0.3222656
-0.3125,0.125,-0.125,-0.03076172,-0.003417969,0.9711914,0.09179688,-0.112793,-0.3222656
0.375,-0.0625,0,-0.03076172,0,0.9790039,0.09179688,-0.112793,-0.3222656
0.375,0.25,0,-0.02685547,0.007324219,0.9711914,0.0859375,-0.1025391,-0.3178711
0.125,0,-0.25,-0.02685547,0.01513672,0.9829102,0.0859375,-0.1025391,-0.3178711
0.1875,0,-0.5625,-0.01513672,-0.003417969,0.9594727,0.0859375,-0.1025391,-0.3178711
0.3125,0.125,-0.5,-0.01904297,0,0.9555664,0.08154297,-0.112793,-0.3056641
0.3125,0,-0.5,-0.04248047,0.01123047,0.9633789,0.08154297,-0.112793,-0.3056641
0,-0.75,-0.375,-0.02294922,0.01513672,0.9829102,0.08154297,-0.112793,-0.3056641
0.4375,-0.0625,-0.5625,-0.04248047,0.003417969,0.9829102,0.08154297,-0.112793,-0.3056641
0.125,-0.25,-0.4375,-0.05029297,-0.01513672,0.9750977,0.08154297,-0.112793,-0.3056641
0.1875,-0.25,-0.625,-0.04638672,0,0.9711914,0.08154297,-0.112793,-0.3056641
-0.8125,-0.625,-0.5625,0.007324219,0.01513672,0.9829102,0.08154297,-0.112793,-0.3056641
0.1875,0.125,0.0625,-0.03857422,-0.003417969,0.9711914,0.08837891,-0.1035156,-0.3154297
0.0625,-0.4375,-0.1875,-0.03076172,0,0.9672852,0.08837891,-0.1035156,-0.3154297
0.1875,-0.3125,-0.3125,-0.04248047,-0.01123047,1.005859,0.08837891,-0.1035156,-0.3154297
0.125,-0.25,-0.1875,-0.03076172,0.003417969,0.9750977,0.08837891,-0.1108398,-0.3095703
0.25,-0.1875,-0.4375,-0.04248047,0,0.9711914,0.08837891,-0.1108398,-0.3095703
-0.1875,-0.6875,-0.4375,-0.03466797,0,0.9594727,0.08837891,-0.1108398,-0.3095703
0.0625,-0.75,-0.25,-0.1166992,0,0.9672852,0.08837891,-0.1108398,-0.3095703
0.0625,-0.375,-0.6875,-0.03857422,0.01123047,0.9555664,0.08837891,-0.1108398,-0.3095703
0.25,0.3125,0,-0.04248047,0,0.9829102,0.08837891,-0.1108398,-0.3095703
-0.125,0.375,-0.125,-0.01513672,0.003417969,0.9672852,0.08837891,-0.1108398,-0.3095703
-0.0625,0.3125,-0.625,-0.01513672,-0.01123047,0.9516602,0.09423828,-0.1176758,-0.3193359
0,0.3125,-0.1875,-0.03857422,-0.003417969,0.9555664,0.09423828,-0.1176758,-0.3193359
0.25,0.125,-0.5625,-0.02685547,-0.007324219,0.9555664,0.09423828,-0.1176758,-0.3193359
-0.3125,-0.5,0.0625,-0.01904297,-0.01513672,0.9633789,0.08984375,-0.1142578,-0.3154297
0.5625,0,-0.125,-0.007324219,0.01123047,0.9790039,0.08984375,-0.1142578,-0.3154297
0.5625,-0.125,0,-0.05029297,-0.003417969,0.9790039,0.08984375,-0.1142578,-0.3154297
0.375,0.125,-0.8125,-0.03076172,-0.007324219,0.9711914,0.0859375,-0.109375,-0.3178711
-0.125,0.5625,-0.1875,-0.03466797,-0.007324219,0.9594727,0.0859375,-0.109375,-0.3178711
0,0.25,-0.0625,-0.03076172,0.01513672,0.9829102,0.0859375,-0.109375,-0.3178711
-0.1875,-0.3125,-0.625,-0.02685547,0,1.005859,0.0859375,-0.109375,-0.3178711
0.1875,-0.3125,-0.125,-0.04638672,0.003417969,0.9672852,0.08837891,-0.1108398,-0.3193359
-0.0625,-0.125,0,-0.02685547,-0.007324219,0.9750977,0.08837891,-0.1108398,-0.3193359
-0.0625,-0.1875,0,-0.02294922,0,0.9633789,0.08837891,-0.1108398,-0.3193359
-0.375,0.1875,-0.5625,-0.03076172,0.01123047,0.9516602,0.08251953,-0.105957,-0.3168945
0.6875,0.3125,-0.125,-0.02685547,0.007324219,0.9829102,0.08251953,-0.105957,-0.3168945
0.1875,0.3125,-0.5625,-0.05029297,-0.003417969,0.9829102,0.08251953,-0.105957,-0.3168945
0.25,0.6875,-0.125,-0.01513672,0,0.9829102,0.08007813,-0.1049805,-0.3168945
-0.4375,-0.1875,-0.1875,-0.04248047,-0.02685547,0.9477539,0.08007813,-0.1049805,-0.3168945
1,0.3125,-0.1875,-0.02294922,0,0.9750977,0.08007813,-0.1049805,-0.3168945
0.25,0.125,-0.5,-0.03466797,0,0.9829102,0.08007813,-0.1049805,-0.3168945
0,0.1875,-0.125,-0.01513672,0.003417969,0.9672852,0.08984375,-0.1142578,-0.3154297
0.5625,0.4375,-0.4375,-0.01513672,-0.007324219,0.9672852,0.08984375,-0.1142578,-0.3154297
0.5,-0.0625,0,-0.03466797,0.003417969,0.9829102,0.08984375,-0.1142578,-0.3154297
0.25,0.1875,-0.25,-0.04638672,0.003417969,0.9711914,0.09667969,-0.1010742,-0.3110352
0.4375,0,-0.1875,-0.02294922,-0.003417969,0.9711914,0.09667969,-0.1010742,-0.3110352
0,-0.3125,-0.3125,-0.03466797,-0.003417969,0.9790039,0.09667969,-0.1010742,-0.3110352
0.0625,0.5625,-0.0625,-0.03466797,0,0.9907227,0.09082031,-0.1049805,-0.3208008
0,0.125,-0.8125,-0.03857422,0.003417969,0.9594727,0.09082031,-0.1049805,-0.3208008
-0.0625,1,0.125,-0.03857422,0,0.9633789,0.09082031,-0.1049805,-0.3208008
0.5625,0.4375,-0.1875,-0.03076172,0.007324219,0.9750977,0.09082031,-0.1049805,-0.3208008
0.1875,0.1875,-0.6875,-0.03076172,-0.003417969,0.9829102,0.09082031,-0.1049805,-0.3208008
0.4375,0.25,-0.125,-0.02685547,0.007324219,0.9711914,0.09082031,-0.1049805,-0.3208008
0.1875,0.0625,-0.625,-0.02685547,-0.01123047,0.9907227,0.09082031,-0.1049805,-0.3208008
0.25,0.4375,-0.375,-0.02685547,0,0.9516602,0.08837891,-0.1025391,-0.3193359
0.1875,0.1875,0,-0.02685547,0.007324219,0.9633789,0.08837891,-0.1025391,-0.3193359
0.5625,0,-0.125,-0.04638672,-0.007324219,0.9672852,0.08837891,-0.1025391,-0.3193359
-0.375,0,-0.5,-0.03466797,-0.003417969,0.9829102,0.08496094,-0.1118164,-0.3193359
0.5,0.3125,-0.1875,-0.03076172,-0.007324219,0.9829102,0.08496094,-0.1118164,-0.3193359
-0.125,0.25,-0.6875,-0.02294922,0.02685547,0.9907227,0.08496094,-0.1118164,-0.3193359
0.25,0.25,-0.4375,-0.04248047,-0.003417969,0.9711914,0.08496094,-0.1118164,-0.3193359
0.125,0,-0.125,-0.02685547,-0.003417969,0.9907227,0.08496094,-0.1118164,-0.3193359
0.4375,-0.4375,-0.1875,-0.01513672,0,0.9829102,0.08496094,-0.1118164,-0.3193359
0.125,0.3125,-0.625,-0.03076172,0,0.9711914,0.08496094,-0.1118164,-0.3193359
0.5,0.5,-0.125,-0.03857422,-0.003417969,0.9829102,0.0859375,-0.1083984,-0.3125
0.1875,0.6875,-0.375,-0.05810547,-0.01513672,0.9555664,0.0859375,-0.1083984,-0.3125
0.5625,0.1875,-0.1875,-0.01513672,-0.003417969,0.9829102,0.0859375,-0.1083984,-0.3125
0.75,0.6875,-0.9375,-0.01123047,-0.007324219,0.9555664,0.08740234,-0.1083984,-0.3237305
0.4375,0,-0.4375,-0.03076172,-0.01123047,0.9907227,0.08740234,-0.1083984,-0.3237305
0.0625,0.25,-0.4375,-0.03076172,-0.003417969,0.9633789,0.08740234,-0.1083984,-0.3237305
0.4375,0.125,-0.125,-0.04248047,0.01123047,0.9829102,0.08984375,-0.1083984,-0.3095703
0.3125,-0.3125,-0.375,-0.05419922,0.02685547,0.9594727,0.08984375,-0.1083984,-0.3095703
0.1875,0,-0.25,-0.02294922,0.01513672,0.9711914,0.08984375,-0.1083984,-0.3095703
0.5625,0.125,-0.5,-0.03857422,0,0.9477539,0.08984375,-0.1083984,-0.3095703
0.0625,-0.125,-0.1875,-0.04248047,0,0.9907227,0.08398438,-0.112793,-0.3193359
-0.25,0.0625,-0.5625,-0.03076172,0.007324219,0.9750977,0.08398438,-0.112793,-0.3193359
0.3125,0.25,-0.0625,-0.02294922,0.007324219,0.9829102,0.08398438,-0.112793,-0.3193359
0.25,0.0625,-0.5625,-0.05029297,0,0.9750977,0.0859375,-0.1118164,-0.3154297
0.25,-0.125,-0.6875,-0.03076172,0.01513672,0.9633789,0.0859375,-0.1118164,-0.3154297
0.3125,0.25,-0.375,-0.03076172,0.007324219,0.9594727,0.0859375,-0.1118164,-0.3154297
0.5625,0.3125,-0.6875,-0.03466797,0.003417969,0.9829102,0.08740234,-0.1118164,-0.3110352
0,-0.0625,-0.625,-0.03466797,0,0.9672852,0.08740234,-0.1118164,-0.3110352
0.5,-0.0625,-0.5625,-0.03857422,0,0.9907227,0.08740234,-0.1118164,-0.3110352
0.125,0.6875,-0.3125,-0.02685547,0.003417969,0.9594727,0.08740234,-0.1118164,-0.3110352
0.4375,-0.3125,-0.125,-0.03076172,-0.003417969,0.9672852,0.08984375,-0.112793,-0.3208008
0.8125,-0.4375,-0.5625,-0.03466797,0.003417969,0.9633789,0.08984375,-0.112793,-0.3208008
0.375,0.5,-0.5,-0.02685547,0.003417969,0.9633789,0.08984375,-0.112793,-0.3208008
0.5625,-0.125,0,-0.03076172,0.01123047,0.9907227,0.08496094,-0.1152344,-0.3178711
0,-0.75,-0.4375,-0.03076172,-0.003417969,0.9829102,0.08496094,-0.1152344,-0.3178711
0.0625,0.125,-0.5625,-0.03076172,-0.003417969,0.9829102,0.08496094,-0.1152344,-0.3178711
0,-0.3125,-0.375,-0.03466797,0.01513672,0.9477539,0.08398438,-0.112793,-0.3154297
0.125,-0.375,-0.5,-0.03076172,0.01513672,0.9516602,0.08398438,-0.112793,-0.3154297
0.125,-0.375,-0.5,-0.04248047,0,0.9750977,0.08398438,-0.112793,-0.3154297
-0.375,-0.3125,0,-0.03466797,0.01123047,0.9868164,0.08398438,-0.112793,-0.3154297
0.3125,0.1875,0,-0.03076172,0,0.9829102,0.08398438,-0.112793,-0.3154297
0.375,-0.5,-0.75,-0.03466797,-0.003417969,0.9633789,0.08398438,-0.112793,-0.3154297
-0.375,-0.25,0,-0.05029297,0,0.9633789,0.08398438,-0.112793,-0.3154297
0.0625,-0.5,-0.1875,-0.04248047,0.003417969,0.9790039,0.09326172,-0.1186523,-0.3125
0.4375,-0.25,-0.125,-0.03076172,0,0.9633789,0.09326172,-0.1186523,-0.3125
0,-0.5,-0.125,-0.03076172,0,0.9555664,0.09326172,-0.1186523,-0.3125
0,-0.625,-0.625,-0.03857422,0.01123047,0.9672852,0.08740234,-0.1108398,-0.3110352
0.3125,-0.3125,-0.3125,-0.03076172,0.01123047,0.9868164,0.08740234,-0.1108398,-0.3110352
-0.375,-0.25,-0.0625,-0.03466797,-0.02294922,0.9633789,0.08740234,-0.1108398,-0.3110352
0,0.0625,-0.0625,-0.03076172,0.01513672,0.9633789,0.08740234,-0.1108398,-0.3110352
0.1875,-0.4375,-0.1875,-0.04248047,0,0.9868164,0.08740234,-0.1108398,-0.3110352
-0.125,-0.5625,0.25,-0.02685547,-0.003417969,0.9907227,0.08740234,-0.1108398,-0.3110352
0,-0.8125,0.6875,-0.01513672,0,0.9711914,0.08740234,-0.1108398,-0.3110352
-0.1875,-0.25,0.1875,-0.03076172,0.003417969,0.9594727,0.0859375,-0.1108398,-0.3154297
0.4375,-0.4375,-0.5,-0.02685547,0.007324219,0.9829102,0.0859375,-0.1108398,-0.3154297
0.25,0,0,-0.03466797,-0.003417969,0.9477539,0.0859375,-0.1108398,-0.3154297
0,-0.625,-0.5,-0.01513672,-0.003417969,0.9868164,0.08007813,-0.109375,-0.3193359
-0.0625,-0.8125,0,-0.03466797,0,0.9868164,0.08007813,-0.109375,-0.3193359
0.375,0.25,-0.4375,-0.05029297,-0.003417969,0.9829102,0.08007813,-0.109375,-0.3193359
-0.6875,-0.0625,0.25,-0.04248047,-0.01123047,0.9750977,0.09326172,-0.1152344,-0.3266602
-0.0625,-0.1875,0,-0.03076172,0,0.9711914,0.09326172,-0.1152344,-0.3266602
-0.125,0.0625,-0.0625,-0.01513672,-0.003417969,0.9672852,0.09326172,-0.1152344,-0.3266602
0.125,-0.4375,-0.125,-0.02685547,0.007324219,0.9516602,0.09326172,-0.1152344,-0.3266602
-0.125,-0.4375,-0.3125,-0.04248047,0.007324219,0.9829102,0.08496094,-0.1118164,-0.3193359
0.5625,0,-0.125,-0.01513672,0.007324219,0.9985352,0.08496094,-0.1118164,-0.3193359
-0.0625,0.5625,0,-0.01513672,0.01513672,0.9907227,0.08496094,-0.1118164,-0.3193359
0.4375,-0.25,-0.125,-0.03466797,-0.003417969,0.9829102,0.08007813,-0.112793,-0.3168945
-0.25,-0.1875,-0.5625,-0.04248047,0,0.9672852,0.08007813,-0.112793,-0.3168945
0.0625,-0.4375,0.0625,-0.01513672,0.003417969,0.9829102,0.08007813,-0.112793,-0.3168945
0.0625,-0.25,0,-0.05419922,0.01123047,0.9711914,0.0859375,-0.1083984,-0.3276367
0.1875,0.1875,-0.25,-0.04638672,0,0.9829102,0.0859375,-0.1083984,-0.3276367
0.0625,-0.125,-0.375,-0.03076172,-0.003417969,0.9711914,0.0859375,-0.1083984,-0.3276367
-0.3125,-0.125,-0.375,-0.05419922,-0.01904297,0.9672852,0.0859375,-0.1083984,-0.3276367
0.25,-0.3125,-0.5,-0.03466797,0,0.9829102,0.09326172,-0.1049805,-0.3237305
0.25,0.25,-0.6875,-0.01123047,0,0.9829102,0.09326172,-0.1049805,-0.3237305
0.125,0.125,-0.4375,-0.02294922,0,0.9711914,0.09326172,-0.1049805,-0.3237305
-0.125,-0.1875,-0.125,-0.05029297,0.01513672,0.9633789,0.09326172,-0.1108398,-0.3154297
0.1875,-0.1875,-0.625,-0.05029297,0.003417969,0.9829102,0.09326172,-0.1108398,-0.3154297
0.6875,0.125,-0.4375,-0.03466797,0.01123047,0.9711914,0.09326172,-0.1108398,-0.3154297
-0.0625,-0.125,-0.125,-0.02685547,0.007324219,0.9790039,0.09179688,-0.1069336,-0.3193359
-0.125,0.125,0,-0.02685547,-0.007324219,0.9868164,0.09179688,-0.1069336,-0.3193359
0.25,0,-0.4375,-0.02294922,0.01513672,0.9594727,0.09179688,-0.1069336,-0.3193359
-0.125,-0.3125,-0.5,-0.01513672,-0.003417969,0.9633789,0.09179688,-0.1069336,-0.3193359
0.125,0.125,-0.3125,-0.02685547,0.007324219,0.9790039,0.09179688,-0.1069336,-0.3193359
-0.8125,-0.0625,-0.375,-0.03076172,-0.01123047,0.9711914,0.09179688,-0.1069336,-0.3193359
0.3125,0.125,-0.3125,-0.01513672,-0.007324219,0.9829102,0.09179688,-0.1069336,-0.3193359
0,-0.1875,-0.1875,-0.03076172,0,0.9711914,0.08740234,-0.112793,-0.3208008
-0.3125,-0.375,-0.4375,-0.03857422,0.003417969,0.9790039,0.08740234,-0.112793,-0.3208008
0.9375,-0.5,-0.5625,-0.03857422,0,0.9633789,0.08740234,-0.112793,-0.3208008
0.5,-0.75,-0.125,-0.04638672,-0.007324219,0.9829102,0.08984375,-0.1108398,-0.3222656
0.125,-0.3125,-1.0625,-0.03076172,-0.01123047,0.9594727,0.08984375,-0.1108398,-0.3222656
-0.4375,-0.25,0.125,-0.03076172,0.003417969,0.9516602,0.08984375,-0.1108398,-0.3222656
0.375,-0.0625,-0.5,-0.01904297,0.01123047,0.9633789,0.08984375,-0.1108398,-0.3222656
0.6875,-0.375,-0.5,-0.03076172,0.01123047,0.9477539,0.08984375,-0.1108398,-0.3222656
-0.375,0.3125,-0.375,-0.03076172,0.007324219,0.9868164,0.08984375,-0.1108398,-0.3222656
0.25,-0.3125,-0.1875,-0.03857422,0.01123047,0.9750977,0.08984375,-0.1108398,-0.3222656
0.0625,-0.25,-0.375,-0.05029297,-0.007324219,0.9633789,0.08984375,-0.109375,-0.3071289
1.0625,-0.3125,0,-0.01513672,-0.01123047,0.9555664,0.08984375,-0.109375,-0.3071289
0.5,0,-0.3125,-0.01513672,0.003417969,0.9594727,0.08984375,-0.109375,-0.3071289
0.0625,0.0625,-0.3125,-0.02294922,-0.003417969,0.9985352,0.08496094,-0.1025391,-0.3168945
0,-0.1875,-0.3125,-0.02685547,0.01123047,0.9711914,0.08496094,-0.1025391,-0.3168945
-0.125,-0.25,-0.0625,-0.03857422,0.01904297,0.9750977,0.08496094,-0.1025391,-0.3168945
0.25,0,-0.1875,-0.03076172,-0.007324219,0.9790039,0.08398438,-0.112793,-0.3251953
0.1875,0.1875,-0.0625,-0.03076172,0.003417969,0.9672852,0.08398438,-0.112793,-0.3251953
0.125,-0.1875,-0.9375,-0.007324219,-0.003417969,0.9555664,0.08398438,-0.112793,-0.3251953
0,0.1875,0.1875,-0.02685547,0,0.9711914,0.08398438,-0.112793,-0.3251953
0.375,0.25,0,-0.02685547,-0.003417969,0.9633789,0.08740234,-0.1118164,-0.3193359
-0.125,-0.625,-0.3125,-0.03076172,-0.003417969,0.9711914,0.08740234,-0.1118164,-0.3193359
0,0.375,-0.1875,-0.01904297,-0.003417969,0.9672852,0.08740234,-0.1118164,-0.3193359
-0.3125,-0.125,-0.5,-0.05419922,0.01513672,0.9594727,0.07910156,-0.109375,-0.3208008
0,-0.1875,-0.5625,-0.02685547,0.003417969,0.9829102,0.07910156,-0.109375,-0.3208008
-0.125,0,-0.0625,-0.02685547,-0.003417969,0.9790039,0.07910156,-0.109375,-0.3208008
-0.25,-0.0625,0.0625,-0.01123047,-0.003417969,0.9829102,0.08398438,-0.1118164,-0.3168945
0,-0.25,-0.5,-0.04638672,0.003417969,0.9594727,0.08398438,-0.1118164,-0.3168945
-0.25,-0.125,-0.3125,-0.01513672,0,0.9672852,0.08398438,-0.1118164,-0.3168945
-0.125,-0.375,-0.1875,-0.03857422,0.003417969,0.9594727,0.08398438,-0.1118164,-0.3168945
-0.3125,0.25,-0.1875,-0.03466797,0.003417969,0.9829102,0.08984375,-0.105957,-0.3222656
0.1875,-0.1875,-0.4375,-0.04248047,0.003417969,0.9594727,0.08984375,-0.105957,-0.3222656
-0.1875,-0.0625,0,-0.02685547,0.01123047,0.9672852,0.08984375,-0.105957,-0.3222656
-0.3125,-0.0625,0,-0.01513672,-0.003417969,0.9555664,0.08398438,-0.1176758,-0.3168945
-0.125,-0.4375,-0.25,-0.04248047,-0.003417969,0.9829102,0.08398438,-0.1176758,-0.3168945
-0.1875,-0.3125,-0.375,-0.01123047,-0.003417969,0.9868164,0.08398438,-0.1176758,-0.3168945
0,-0.125,-0.625,-0.04248047,0.003417969,0.9907227,0.09179688,-0.112793,-0.3178711
0,0,-0.5,-0.03466797,-0.007324219,0.9594727,0.09179688,-0.112793,-0.3178711
-0.125,0,0.0625,-0.01123047,-0.02294922,0.9829102,0.09179688,-0.112793,-0.3178711
0,-0.5,-0.1875,-0.02685547,0,0.9750977,0.09179688,-0.112793,-0.3178711
0.125,0.25,-0.4375,-0.03076172,0.003417969,0.9829102,0.09179688,-0.112793,-0.3178711
0.25,-0.1875,0,-0.01904297,-0.007324219,0.9672852,0.09179688,-0.112793,-0.3178711
0.125,-0.3125,-0.3125,-0.03857422,0.003417969,0.9594727,0.09179688,-0.112793,-0.3178711
0.4375,-0.4375,-0.75,-0.03076172,-0.007324219,0.9633789,0.08251953,-0.1152344,-0.3110352
0,-0.6875,-0.0625,-0.05419922,0.01513672,0.9633789,0.08251953,-0.1152344,-0.3110352
-0.0625,-0.375,-0.5,-0.03857422,-0.01123047,0.9829102,0.08251953,-0.1152344,-0.3110352
-0.1875,0,-0.25,-0.04638672,-0.007324219,0.9750977,0.08740234,-0.1083984,-0.3125
0,0.1875,-0.125,-0.01513672,0.007324219,0.9672852,0.08740234,-0.1083984,-0.3125
0,-0.1875,0.0625,-0.01904297,-0.01513672,0.9555664,0.08740234,-0.1083984,-0.3125
0.5,0.25,0.25,-0.03466797,-0.003417969,0.9907227,0.08740234,-0.1083984,-0.3125
0,0.125,-0.3125,-0.01904297,0.003417969,0.9907227,0.08740234,-0.1083984,-0.3125
-0.0625,-0.375,-0.25,-0.02294922,0,0.9946289,0.08740234,-0.1083984,-0.3125
0.4375,0,-0.0625,-0.01123047,0.007324219,0.9907227,0.08740234,-0.1083984,-0.3125
0.75,0.125,-0.125,-0.03857422,0,0.9829102,0.08398438,-0.1118164,-0.3193359
0.4375,0.3125,-0.5625,-0.01513672,0.007324219,0.9594727,0.08398438,-0.1118164,-0.3193359
0.4375,0.3125,-0.4375,-0.03466797,0.003417969,0.9672852,0.08398438,-0.1118164,-0.3193359
0.75,-0.25,-0.6875,-0.01513672,0.01123047,0.9477539,0.08984375,-0.112793,-0.3208008
0.625,-0.25,-0.3125,-0.02294922,0.01513672,0.9633789,0.08984375,-0.112793,-0.3208008
0.0625,-0.25,0,-0.02294922,0.007324219,0.9829102,0.08984375,-0.112793,-0.3208008
0.6875,0.125,-0.6875,-0.03466797,-0.01904297,0.9829102,0.0859375,-0.1142578,-0.3178711
0.1875,-0.4375,0,-0.03076172,-0.003417969,0.9633789,0.0859375,-0.1142578,-0.3178711
0.5,-0.3125,-0.1875,-0.03466797,0,0.9829102,0.0859375,-0.1142578,-0.3178711
-0.5625,0,-0.5,-0.01513672,0.003417969,0.9672852,0.0859375,-0.1142578,-0.3178711
0.375,-0.6875,-0.125,-0.03857422,0.007324219,0.9829102,0.08398438,-0.109375,-0.3178711
0.1875,-0.4375,-0.3125,-0.01904297,0,0.9672852,0.08398438,-0.109375,-0.3178711
0.125,-0.125,-0.125,-0.02685547,0.003417969,0.9711914,0.08398438,-0.109375,-0.3178711
-0.1875,-0.375,0,-0.01513672,0.007324219,0.9868164,0.08398438,-0.109375,-0.3208008
0.625,-0.25,-0.5,-0.05810547,0.003417969,0.9868164,0.08398438,-0.109375,-0.3208008
0.3125,0,-0.4375,-0.02294922,0.007324219,0.9907227,0.08398438,-0.109375,-0.3208008
0,0.25,-0.5625,-0.01513672,-0.01123047,0.9711914,0.0859375,-0.109375,-0.3208008
0.6875,0.125,-0.1875,-0.01513672,0.003417969,0.9594727,0.0859375,-0.109375,-0.3208008
0.1875,0.25,-0.75,-0.02294922,-0.003417969,0.9829102,0.0859375,-0.109375,-0.3208008
0.25,0.4375,-0.5,-0.02685547,-0.01513672,0.9868164,0.0859375,-0.109375,-0.3208008
0.25,0.1875,-0.1875,-0.01123047,-0.003417969,0.9829102,0.08740234,-0.1142578,-0.3276367
0.8125,0.5625,-0.5625,-0.01513672,0.007324219,0.9711914,0.08740234,-0.1142578,-0.3276367
0.6875,0.25,-0.6875,-0.03076172,-0.003417969,0.9711914,0.08740234,-0.1142578,-0.3276367
0.5625,0.75,-0.25,-0.01513672,-0.01123047,0.9594727,0.08251953,-0.1118164,-0.3154297
0.625,0.125,-0.625,-0.05029297,0.007324219,0.9829102,0.08251953,-0.1118164,-0.3154297
0,0.1875,-0.0625,-0.05029297,0.01513672,0.9829102,0.08251953,-0.1118164,-0.3154297
0.5625,0.4375,-0.6875,0,-0.01123047,0.9829102,0.08496094,-0.1083984,-0.3139648
0.4375,0.125,0.125,-0.03857422,0.01513672,0.9829102,0.08496094,-0.1083984,-0.3139648
0.1875,0.3125,0,-0.03466797,0,0.9907227,0.08496094,-0.1083984,-0.3139648
0.5,0.4375,-0.375,-0.04248047,-0.01123047,0.9711914,0.08496094,-0.1083984,-0.3139648
0.0625,0.375,-0.4375,-0.02685547,-0.01123047,0.9829102,0.08496094,-0.1083984,-0.3139648
0.1875,0.3125,-0.125,-0.01513672,0,0.9829102,0.08496094,-0.1083984,-0.3139648
0.4375,-0.0625,-0.1875,-0.03857422,0.007324219,0.9829102,0.08496094,-0.1083984,-0.3139648
0.5625,0.625,-0.5,-0.01513672,0.003417969,0.9711914,0.09179688,-0.1083984,-0.3125
0.0625,0.125,0,-0.01123047,0.007324219,0.9633789,0.09179688,-0.1083984,-0.3125
0.6875,0.375,-0.1875,-0.01513672,0.007324219,0.9829102,0.09179688,-0.1083984,-0.3125
0.5,0.3125,-0.75,-0.01513672,-0.01123047,0.9555664,0.08154297,-0.1108398,-0.3222656
0.125,0.5625,-0.25,-0.02685547,0.01513672,0.9868164,0.08154297,-0.1108398,-0.3222656
0.8125,0.375,-0.3125,-0.03076172,-0.003417969,0.9829102,0.08154297,-0.1108398,-0.3222656
0.125,0.3125,-0.6875,-0.03857422,-0.007324219,0.9633789,0.08154297,-0.1108398,-0.3222656
0.3125,0.6875,-0.25,-0.02685547,0.003417969,0.9555664,0.08154297,-0.1108398,-0.3222656
0.375,0.375,-0.625,-0.02294922,-0.003417969,0.9868164,0.08154297,-0.1108398,-0.3222656
0.375,0.25,-0.375,-0.01513672,-0.007324219,0.9868164,0.08154297,-0.1108398,-0.3222656
0.0625,-0.125,-0.25,-0.03466797,-0.007324219,0.9829102,0.08740234,-0.1108398,-0.3178711
0.3125,0.0625,-0.375,-0.03857422,0.003417969,0.9672852,0.08740234,-0.1108398,-0.3178711
0.125,0.1875,-0.625,-0.03466797,0.003417969,0.9672852,0.08740234,-0.1108398,-0.3178711
0.125,0,-0.5,-0.04248047,0,0.9672852,0.09179688,-0.105957,-0.3139648
-0.125,0.125,-0.375,-0.04248047,-0.007324219,0.9829102,0.09179688,-0.105957,-0.3139648
-0.125,-0.4375,-0.5,-0.03857422,-0.01513672,0.9829102,0.09179688,-0.105957,-0.3139648
0.25,-0.25,-0.375,-0.03857422,0.01513672,0.9594727,0.08496094,-0.1142578,-0.3139648
0.4375,-0.4375,-0.6875,-0.01123047,0.003417969,0.9829102,0.08496094,-0.1142578,-0.3139648
0.125,-0.125,-0.25,-0.02294922,0.01513672,0.9672852,0.08496094,-0.1142578,-0.3139648
0.6875,0.1875,-0.3125,-0.03076172,0,0.9438477,0.08496094,-0.1142578,-0.3139648
0.4375,0.125,-0.4375,-0.02294922,0,0.9790039,0.08740234,-0.1118164,-0.3178711
0.375,0.375,-0.25,-0.03076172,-0.01513672,0.9868164,0.08740234,-0.1118164,-0.3178711
0.125,0.375,-0.4375,-0.04248047,0.003417969,0.9477539,0.08740234,-0.1118164,-0.3178711
0.3125,0.25,-0.5625,-0.03076172,-0.007324219,0.9829102,0.09082031,-0.1142578,-0.3193359
0.875,0.25,-0.125,-0.02294922,0.01904297,0.9594727,0.09082031,-0.1142578,-0.3193359
0.4375,0.4375,-0.625,-0.02685547,-0.007324219,0.9750977,0.09082031,-0.1142578,-0.3193359
0.1875,0.375,-0.1875,-0.03076172,0.01123047,0.9946289,0.08251953,-0.1118164,-0.3168945
0.6875,1.1875,-0.4375,-0.02294922,-0.007324219,0.9477539,0.08251953,-0.1118164,-0.3168945
0.9375,0.4375,-0.5625,-0.05419922,0.01123047,0.9868164,0.08251953,-0.1118164,-0.3168945
0.5,0.5,-0.1875,-0.01123047,0.01123047,0.9829102,0.08251953,-0.1118164,-0.3168945
0.1875,0.6875,-0.25,-0.03076172,0.007324219,0.9829102,0.09179688,-0.1069336,-0.3193359
-0.125,0.375,-0.375,-0.03857422,0.01123047,0.9829102,0.09179688,-0.1069336,-0.3193359
-0.4375,0.125,-0.4375,-0.03076172,0,0.9633789,0.09179688,-0.1069336,-0.3193359
-0.0625,0.375,-0.125,-0.04248047,0,0.9829102,0.09667969,-0.1118164,-0.3168945
0.1875,0.5625,0,-0.01904297,0,0.9750977,0.09667969,-0.1118164,-0.3168945
0.4375,0,-0.625,-0.04638672,0,0.9594727,0.09667969,-0.1118164,-0.3168945
0.1875,0,-0.3125,0,0.01123047,0.9555664,0.08837891,-0.109375,-0.3193359
0.5625,0,-0.125,-0.01513672,0,0.9985352,0.08837891,-0.109375,-0.3193359
0.125,-0.0625,-0.625,-0.02294922,0.003417969,0.9829102,0.08837891,-0.109375,-0.3193359
0.5,0.5,-0.625,-0.02685547,0.01123047,0.9829102,0.08837891,-0.109375,-0.3193359
0.5,0.5,-0.5,-0.02294922,0.01123047,0.9711914,0.08837891,-0.109375,-0.3193359
0.5,0.5,-0.5625,-0.02685547,-0.003417969,0.9672852,0.08837891,-0.109375,-0.3193359
0.75,0,-0.4375,-0.03857422,0,0.9594727,0.08837891,-0.109375,-0.3193359
0.1875,0.3125,-0.6875,-0.05029297,0.01123047,0.9790039,0.08740234,-0.1069336,-0.3125
0.6875,0.1875,-0.4375,-0.04638672,0.01123047,0.9555664,0.08740234,-0.1069336,-0.3125
0.1875,0.375,-0.5,-0.02685547,-0.01123047,0.9555664,0.08740234,-0.1069336,-0.3125
0.6875,0.8125,-0.1875,-0.04248047,-0.007324219,0.9672852,0.08984375,-0.109375,-0.3081055
0.625,-0.3125,-0.5,-0.04638672,-0.01513672,0.9672852,0.08984375,-0.109375,-0.3081055
0.375,0.125,0.0625,-0.01904297,-0.003417969,0.9868164,0.08984375,-0.109375,-0.3081055
0.75,0.375,-0.5,-0.03076172,0.01123047,0.9829102,0.08984375,-0.109375,-0.3081055
0.0625,0.375,-0.0625,-0.01513672,0.003417969,0.9829102,0.08984375,-0.109375,-0.3081055
-0.125,0.1875,-0.0625,-0.05810547,-0.003417969,0.9516602,0.08984375,-0.109375,-0.3081055
0.125,0.375,-0.6875,-0.05419922,0.003417969,0.9672852,0.08984375,-0.109375,-0.3081055
-0.25,0.5,0.125,-0.02685547,-0.003417969,0.9829102,0.09521484,-0.1049805,-0.3139648
0.0625,-0.25,-0.125,-0.05810547,0.01513672,0.9829102,0.09521484,-0.1049805,-0.3139648
0.4375,-0.125,-0.375,-0.03076172,-0.003417969,0.9711914,0.09521484,-0.1049805,-0.3139648
0.4375,-0.1875,-0.1875,-0.03076172,-0.01123047,0.9907227,0.09326172,-0.1083984,-0.3139648
-0.0625,0.5,-0.25,-0.04638672,0.003417969,0.9633789,0.09326172,-0.1083984,-0.3139648
0.1875,0.1875,-0.625,-0.03076172,-0.007324219,0.9633789,0.09326172,-0.1083984,-0.3139648
0.375,0,0,-0.03076172,-0.01123047,0.9555664,0.0859375,-0.1025391,-0.3168945
0,-0.3125,-0.75,-0.03857422,0.01513672,0.9711914,0.0859375,-0.1025391,-0.3168945
-0.1875,-0.1875,-0.375,-0.04248047,0,0.9633789,0.0859375,-0.1025391,-0.3168945
0.4375,-0.0625,-0.6875,-0.02685547,0.007324219,0.9711914,0.0859375,-0.1025391,-0.3168945
-0.125,-0.125,-0.125,-0.03466797,0.003417969,0.9829102,0.08398438,-0.1049805,-0.3193359
0.1875,-0.3125,-0.125,-0.03857422,0.01123047,0.9711914,0.08398438,-0.1049805,-0.3193359
0,0,-0.5,-0.03076172,0.02685547,0.9907227,0.08398438,-0.1049805,-0.3193359
0.4375,0.125,-0.125,-0.01123047,0.007324219,0.9829102,0.09423828,-0.1142578,-0.3178711
-0.4375,-0.1875,0.0625,-0.05029297,-0.007324219,0.9750977,0.09423828,-0.1142578,-0.3178711
0.4375,0.0625,-0.6875,-0.01123047,-0.003417969,0.9633789,0.09423828,-0.1142578,-0.3178711
-0.375,-0.0625,0,-0.05419922,0.01904297,0.9672852,0.08251953,-0.112793,-0.3139648
0,-0.25,-0.6875,-0.03466797,0.01123047,0.9829102,0.08251953,-0.112793,-0.3139648
0.375,0,-0.4375,-0.03076172,0,0.9829102,0.08251953,-0.112793,-0.3139648
0,-0.0625,-0.5,-0.03466797,-0.003417969,0.9829102,0.08251953,-0.112793,-0.3139648
0.5625,0.4375,-0.3125,-0.04248047,0.003417969,0.9711914,0.08837891,-0.1069336,-0.3154297
0.625,0.125,-0.5625,-0.03466797,0,0.9750977,0.08837891,-0.1069336,-0.3154297
0,0.75,-0.375,-0.04248047,-0.007324219,0.9516602,0.08837891,-0.1069336,-0.3154297
0.3125,-0.25,-0.1875,-0.04248047,-0.007324219,0.9907227,0.08740234,-0.1069336,-0.3168945
0.4375,0.6875,-0.6875,-0.04248047,-0.01123047,0.9985352,0.08740234,-0.1069336,-0.3168945
0.1875,0.1875,-0.5,-0.03076172,0.003417969,0.9516602,0.08740234,-0.1069336,-0.3168945
0.5,-0.25,-0.4375,-0.04638672,0.003417969,0.9868164,0.09082031,-0.1108398,-0.3125
0.1875,0.375,-0.125,-0.03076172,-0.003417969,0.9672852,0.09082031,-0.1108398,-0.3125
0,0.3125,-0.5,-0.05419922,-0.007324219,0.9750977,0.09082031,-0.1108398,-0.3125
0.375,-0.25,0,-0.03466797,-0.003417969,0.9555664,0.09082031,-0.1108398,-0.3125
0,-0.0625,-0.625,-0.01513672,0.007324219,0.9829102,0.09082031,-0.1108398,-0.3125
0.1875,0.125,0.4375,-0.05029297,0.01904297,0.9672852,0.09082031,-0.1108398,-0.3125
0.25,0.6875,-0.625,-0.04248047,-0.007324219,0.9672852,0.09082031,-0.1108398,-0.3125
0.375,0.3125,-0.5625,-0.02294922,-0.007324219,0.9868164,0.09082031,-0.112793,-0.3237305
0.5,-0.5,-0.5,-0.03076172,0,0.9633789,0.09082031,-0.112793,-0.3237305
-0.1875,0.4375,-0.125,-0.03857422,0.01513672,0.9829102,0.09082031,-0.112793,-0.3237305
0,0.125,0,-0.01513672,0.003417969,0.9594727,0.08740234,-0.1176758,-0.3168945
-0.25,0.125,-0.125,-0.03076172,-0.003417969,0.9711914,0.08740234,-0.1176758,-0.3168945
0.4375,0.1875,-0.375,-0.01513672,0,0.9555664,0.08740234,-0.1176758,-0.3168945
0.125,0.3125,-0.1875,-0.02685547,-0.003417969,0.9633789,0.08740234,-0.1176758,-0.3168945
0.1875,-0.375,0,-0.02685547,0.01513672,0.9633789,0.08740234,-0.1176758,-0.3168945
0.0625,-0.375,0,-0.04248047,-0.003417969,0.9711914,0.08740234,-0.1176758,-0.3168945
0.0625,-0.3125,-0.0625,-0.03857422,-0.007324219,0.9750977,0.08740234,-0.1176758,-0.3168945
0.375,0,-0.1875,-0.04638672,0,0.9672852,0.08740234,-0.1118164,-0.3095703
0.125,0,0.0625,-0.02685547,-0.003417969,0.9555664,0.08740234,-0.1118164,-0.3095703
-0.375,0.125,-0.625,-0.03466797,0.02685547,0.9907227,0.08740234,-0.1118164,-0.3095703
0.125,-0.4375,0,-0.01513672,0.01123047,0.9555664,0.09179688,-0.1118164,-0.3222656
0.3125,0.3125,-0.1875,-0.03076172,0,0.9711914,0.09179688,-0.1118164,-0.3222656
0,0.5625,-0.6875,-0.04248047,0,0.9829102,0.09179688,-0.1118164,-0.3222656
0.4375,0.1875,-0.125,-0.03857422,-0.01123047,0.9633789,0.0859375,-0.1035156,-0.3081055
-0.1875,-0.1875,-0.375,-0.04248047,0.007324219,0.9907227,0.0859375,-0.1035156,-0.3081055
0,0.25,-0.1875,-0.03466797,-0.01513672,0.9633789,0.0859375,-0.1035156,-0.3081055
0.25,-0.0625,-0.375,-0.01513672,0,0.9829102,0.0859375,-0.1035156,-0.3081055
0.25,-0.4375,0.25,-0.03466797,0.01123047,1.001953,0.08154297,-0.1118164,-0.3193359
0.9375,0.0625,-0.75,-0.03466797,-0.007324219,0.9672852,0.08154297,-0.1118164,-0.3193359
0.3125,0.3125,-0.4375,-0.01513672,0.01513672,0.9711914,0.08154297,-0.1118164,-0.3193359
0.25,0,0.0625,-0.05029297,0.003417969,0.9633789,0.08398438,-0.1152344,-0.3168945
0.5,0,-0.25,-0.01513672,-0.003417969,0.9555664,0.08398438,-0.1152344,-0.3168945
0.1875,0.3125,-0.125,-0.01513672,-0.003417969,0.9477539,0.08398438,-0.1152344,-0.3168945
0,0.125,-0.25,-0.02685547,0.01513672,0.9829102,0.09082031,-0.1069336,-0.3154297
0.375,0.4375,-0.5,-0.03857422,0,0.9829102,0.09082031,-0.1069336,-0.3154297
0.6875,0.0625,-0.5625,-0.03466797,-0.007324219,0.9672852,0.09082031,-0.1069336,-0.3154297
0.1875,0.25,-0.3125,-0.03857422,0.01123047,0.9868164,0.09082031,-0.1069336,-0.3154297
1.0625,0.4375,0,-0.03076172,-0.003417969,0.9360352,0.08984375,-0.109375,-0.3251953
0.4375,0.125,-0.625,-0.04638672,-0.003417969,0.9750977,0.08984375,-0.109375,-0.3251953
1.1875,0.1875,-0.5,-0.03076172,-0.003417969,0.9594727,0.08984375,-0.109375,-0.3251953
0.625,-0.375,-0.5,-0.03857422,-0.01513672,0.9711914,0.09326172,-0.1118164,-0.3222656
0.875,0.25,-0.5,-0.05029297,0.007324219,0.9750977,0.09326172,-0.1118164,-0.3222656
0.5,0.3125,-0.375,-0.02294922,0.01513672,0.9711914,0.09326172,-0.1118164,-0.3222656
0.375,0.6875,-0.5,-0.05810547,0.01123047,0.9907227,0.09667969,-0.1142578,-0.3237305
0,0.3125,-0.75,-0.03466797,0.01123047,0.9633789,0.09667969,-0.1142578,-0.3237305
0.25,-0.3125,-0.1875,-0.02685547,-0.003417969,0.9829102,0.09667969,-0.1142578,-0.3237305
-0.1875,-0.125,0,-0.01123047,0,0.9321289,0.09667969,-0.1142578,-0.3237305
0.1875,-0.25,0,-0.05029297,0.007324219,0.9829102,0.09667969,-0.1142578,-0.3237305
0.4375,-0.375,0.0625,-0.01513672,0.01123047,0.9868164,0.09667969,-0.1142578,-0.3237305
0,-0.125,-0.25,-0.05029297,0,0.9672852,0.09667969,-0.1142578,-0.3237305
0.1875,0,0,-0.03466797,0,0.9672852,0.09179688,-0.1049805,-0.3095703
-0.25,0.25,-0.5625,-0.03857422,-0.01513672,0.9829102,0.09179688,-0.1049805,-0.3095703
0,-0.25,-0.1875,-0.03857422,0.007324219,0.9711914,0.09179688,-0.1049805,-0.3095703
0.3125,0.4375,-0.3125,-0.03466797,0.02685547,0.9829102,0.08984375,-0.1083984,-0.3193359
-0.0625,0.0625,-0.4375,-0.03857422,0.007324219,0.9711914,0.08984375,-0.1083984,-0.3193359
0,0.1875,-0.25,-0.03857422,0.01123047,0.9750977,0.08984375,-0.1083984,-0.3193359
0.25,0.6875,-0.625,-0.02685547,0.01123047,0.9711914,0.08984375,-0.1083984,-0.3193359
-0.375,-0.125,-0.1875,-0.04248047,0.01513672,0.9829102,0.08984375,-0.1083984,-0.3193359
0.75,-0.25,-0.5,-0.04248047,-0.01513672,0.9672852,0.08984375,-0.1083984,-0.3193359
-0.125,-0.0625,-0.5,-0.03076172,-0.003417969,0.9672852,0.08984375,-0.1083984,-0.3193359
0.4375,-0.3125,-0.4375,-0.05029297,0,0.9829102,0.08984375,-0.1083984,-0.3095703
-0.4375,0.25,-0.1875,-0.04248047,0,0.9594727,0.08984375,-0.1083984,-0.3095703
0.3125,0.1875,0,-0.01513672,0.003417969,0.9633789,0.08984375,-0.1083984,-0.3095703
0.375,0,-0.0625,-0.04638672,0,0.9868164,0.08740234,-0.1108398,-0.3168945
0.4375,0.5,-0.25,-0.03076172,0,0.9829102,0.08740234,-0.1108398,-0.3168945
0.75,-0.0625,-0.0625,-0.04638672,0,0.9633789,0.08740234,-0.1108398,-0.3168945
0,0.6875,-0.1875,-0.03857422,0.003417969,0.9985352,0.0859375,-0.112793,-0.3154297
0.25,-0.25,-0.4375,-0.03857422,0.003417969,0.9477539,0.0859375,-0.112793,-0.3154297
0.75,0.3125,-0.4375,-0.03466797,0,0.9672852,0.0859375,-0.112793,-0.3154297
-0.1875,0.0625,-0.375,-0.01123047,-0.003417969,0.9985352,0.0859375,-0.112793,-0.3154297
0.8125,0.25,0.0625,-0.01513672,0,0.9868164,0.09179688,-0.1162109,-0.3154297
-0.0625,0.25,-0.1875,-0.04248047,-0.007324219,0.9711914,0.09179688,-0.1162109,-0.3154297
0.625,-0.25,-0.25,-0.02685547,0,0.9633789,0.09179688,-0.1162109,-0.3154297
0.5,0.25,-0.4375,-0.04248047,0.01513672,0.9633789,0.08496094,-0.1083984,-0.3168945
-0.1875,-0.1875,-0.1875,-0.05029297,-0.003417969,0.9633789,0.08496094,-0.1083984,-0.3168945
0.5625,-0.1875,-0.8125,-0.03857422,-0.01123047,0.9633789,0.08496094,-0.1083984,-0.3168945
0.375,0.25,-0.4375,-0.05029297,0.003417969,0.9594727,0.08740234,-0.1118164,-0.3168945
0.1875,0.0625,-0.5625,-0.03076172,0.01513672,0.9711914,0.08740234,-0.1118164,-0.3168945
0.3125,-0.0625,-0.5,-0.03076172,-0.007324219,0.9672852,0.08740234,-0.1118164,-0.3168945
0.5625,0.4375,-0.125,-0.03076172,0,0.9790039,0.08740234,-0.1118164,-0.3168945
0.625,0.125,-0.1875,-0.04248047,0,0.9750977,0.08984375,-0.1069336,-0.3208008
-0.25,0.1875,-1,-0.02685547,0.02685547,0.9555664,0.08984375,-0.1069336,-0.3208008
0.8125,0.25,-0.4375,-0.02685547,0.003417969,0.9829102,0.08984375,-0.1069336,-0.3208008
0.25,0.1875,-0.1875,-0.01123047,0.01123047,0.9946289,0.08496094,-0.1083984,-0.3168945
0.375,0.4375,-0.5625,-0.03076172,0.003417969,0.9750977,0.08496094,-0.1083984,-0.3168945
0,0.0625,-0.1875,-0.03857422,0,0.9633789,0.08496094,-0.1083984,-0.3168945
0.3125,0.75,-0.0625,-0.03076172,0.01513672,0.9672852,0.09326172,-0.105957,-0.3193359
0.6875,0.625,-0.8125,-0.03857422,0.003417969,0.9672852,0.09326172,-0.105957,-0.3193359
0.5625,0,-0.5,-0.03466797,0.003417969,0.9829102,0.09326172,-0.105957,-0.3193359
0.1875,0,-0.5,-0.04248047,0.003417969,0.9868164,0.09326172,-0.105957,-0.3193359
0.5625,0.375,-0.625,-0.03076172,-0.003417969,0.9711914,0.09326172,-0.105957,-0.3193359
0.25,1,-0.3125,-0.03857422,0,0.9594727,0.09326172,-0.105957,-0.3193359
-0.25,0.3125,-0.3125,-0.03076172,0.007324219,0.9477539,0.09326172,-0.105957,-0.3193359
0.25,0.375,-0.4375,-0.03857422,0,0.9672852,0.08740234,-0.112793,-0.3154297
0.125,0.125,-0.0625,-0.01513672,0,0.9829102,0.08740234,-0.112793,-0.3154297
0.1875,-0.1875,-0.6875,-0.02685547,-0.003417969,0.9868164,0.08740234,-0.112793,-0.3154297
0.5,-0.1875,-0.75,-0.03857422,0.01904297,0.9672852,0.08740234,-0.1108398,-0.3125
0.4375,-0.125,-0.125,-0.05419922,0.007324219,0.9672852,0.08740234,-0.1108398,-0.3125
-0.1875,0.3125,-0.5625,-0.02685547,0.01513672,0.9672852,0.08740234,-0.1108398,-0.3125
0,0.4375,-0.25,-0.05419922,0,0.9829102,0.08740234,-0.1108398,-0.3125
-0.125,-0.1875,-0.1875,-0.03466797,0.003417969,0.9672852,0.08740234,-0.1108398,-0.3125
0,-0.0625,0,-0.03857422,0.003417969,0.9438477,0.08740234,-0.1108398,-0.3125
0.375,0.1875,0,-0.05029297,0.007324219,0.9633789,0.08740234,-0.1108398,-0.3125
-0.125,-0.0625,-0.1875,-0.03857422,-0.007324219,0.9946289,0.09912109,-0.112793,-0.3168945
-0.25,-0.375,0,-0.01904297,0.01513672,0.9672852,0.09912109,-0.112793,-0.3168945
0,-0.1875,-0.0625,-0.04248047,-0.01513672,0.9633789,0.09912109,-0.112793,-0.3168945
-0.375,-0.1875,0,-0.04248047,-0.01123047,0.9750977,0.08740234,-0.1118164,-0.3154297
0,-0.3125,-0.4375,-0.02685547,0.01513672,0.9711914,0.08740234,-0.1118164,-0.3154297
0,-0.0625,-0.125,-0.03857422,0,0.9555664,0.08740234,-0.1118164,-0.3154297
-0.0625,-0.125,0.0625,-0.02685547,0.01123047,0.9711914,0.08984375,-0.1118164,-0.3168945
0,-0.1875,0.0625,-0.03076172,0.007324219,0.9555664,0.08984375,-0.1118164,-0.3168945
0.1875,-0.3125,-0.5625,-0.02685547,-0.003417969,0.9829102,0.08984375,-0.1118164,-0.3168945
0.375,0.0625,-0.25,-0.04638672,0,0.9672852,0.08984375,-0.1118164,-0.3168945
-0.125,-0.25,-0.25,-0.05419922,0.003417969,0.9672852,0.08007813,-0.1142578,-0.3222656
0.375,-0.4375,-0.1875,-0.01513672,0.01513672,0.9750977,0.08007813,-0.1142578,-0.3222656
0,-0.8125,-0.375,-0.02685547,0.007324219,0.9868164,0.08007813,-0.1142578,-0.3222656
-0.25,0.1875,-0.5625,-0.04248047,-0.007324219,0.9633789,0.08398438,-0.105957,-0.3095703
-0.25,-0.1875,-0.5625,-0.04248047,-0.01123047,0.9750977,0.08398438,-0.105957,-0.3095703
-0.125,-0.4375,-0.625,-0.03076172,0,0.9594727,0.08398438,-0.105957,-0.3095703
0.25,-0.1875,-0.375,-0.03076172,-0.01904297,0.9633789,0.08837891,-0.1142578,-0.3168945
-0.3125,-0.125,0.0625,-0.03076172,0.007324219,0.9750977,0.08837891,-0.1142578,-0.3168945
0.25,-0.375,-0.0625,-0.03076172,0,0.9672852,0.08837891,-0.1142578,-0.3168945
0.1875,0.0625,-0.625,-0.03466797,0.007324219,0.9829102,0.08837891,-0.1142578,-0.3168945
0.125,-0.25,0,-0.03857422,0.007324219,0.9633789,0.08837891,-0.1118164,-0.3125
-0.25,0.0625,-0.25,-0.03466797,0.003417969,0.9907227,0.08837891,-0.1118164,-0.3125
1.125,-0.75,-0.3125,-0.03857422,0.01123047,0.9868164,0.08837891,-0.1118164,-0.3125
0.5625,-0.125,-0.5,-0.03076172,-0.003417969,0.9829102,0.09326172,-0.1142578,-0.3168945
0.125,-0.1875,-0.75,-0.03857422,0.01513672,0.9711914,0.09326172,-0.1142578,-0.3168945
0.3125,0,-0.375,-0.03466797,0,0.9868164,0.09326172,-0.1142578,-0.3168945
0,0.375,-0.625,-0.04248047,0,0.9594727,0.09082031,-0.109375,-0.3251953
0.3125,-0.1875,-0.375,-0.02685547,0,0.9750977,0.09082031,-0.109375,-0.3251953
0.25,0.3125,0,-0.01513672,-0.01123047,1.005859,0.09082031,-0.109375,-0.3251953
0.0625,-0.25,-0.375,-0.04248047,0,0.9672852,0.09082031,-0.109375,-0.3251953
0,-0.25,-0.3125,-0.04638672,-0.003417969,0.9594727,0.09082031,-0.109375,-0.3251953
0.25,-0.3125,-0.25,-0.02685547,-0.007324219,0.9633789,0.09082031,-0.109375,-0.3251953
-0.125,0,-0.5,-0.05029297,0.003417969,0.9868164,0.09082031,-0.109375,-0.3251953
0.5,0,-0.1875,-0.03857422,0.007324219,0.9438477,0.08740234,-0.1142578,-0.3193359
-0.125,0,0.125,-0.03857422,0.003417969,0.9633789,0.08740234,-0.1142578,-0.3193359
0.0625,-0.1875,-0.625,-0.04248047,0.003417969,0.9477539,0.08740234,-0.1142578,-0.3193359
0,-0.9375,-0.5625,-0.03076172,-0.01123047,0.9633789,0.08984375,-0.1176758,-0.3193359
-0.1875,-0.25,-0.3125,-0.02294922,-0.007324219,0.9829102,0.08984375,-0.1176758,-0.3193359
0.6875,-0.0625,-0.4375,-0.04248047,-0.01513672,0.9438477,0.08984375,-0.1176758,-0.3193359
0.5,-0.0625,-0.125,-0.02685547,0.003417969,0.9711914,0.08984375,-0.1176758,-0.3193359
0.3125,0.125,-0.625,-0.04248047,-0.01123047,0.9750977,0.08984375,-0.1176758,-0.3193359
-0.0625,-0.3125,-0.75,-0.04638672,-0.01123047,0.9829102,0.08984375,-0.1176758,-0.3193359
0.0625,0.0625,-0.1875,-0.03466797,-0.01513672,0.9750977,0.08984375,-0.1176758,-0.3193359
0.5,0.0625,-0.5625,-0.03466797,-0.003417969,0.9907227,0.08496094,-0.1142578,-0.3154297
0.25,0,-0.75,-0.02685547,0.01513672,0.9750977,0.08496094,-0.1142578,-0.3154297
-0.1875,-0.3125,-0.4375,-0.02685547,-0.01904297,0.9868164,0.08496094,-0.1142578,-0.3154297
0.625,0,-0.3125,-0.01904297,0,0.9711914,0.09326172,-0.1176758,-0.3222656
0.3125,0,0.1875,-0.05029297,0.01123047,0.9907227,0.09326172,-0.1176758,-0.3222656
0.5625,-0.875,-0.3125,-0.03076172,0,0.9711914,0.09326172,-0.1176758,-0.3222656
0.4375,-0.1875,0,-0.03076172,-0.003417969,0.9790039,0.09179688,-0.112793,-0.3139648
-0.125,-0.0625,-0.0625,-0.03466797,-0.01123047,0.9868164,0.09179688,-0.112793,-0.3139648
0.3125,-0.8125,-0.375,-0.04248047,-0.007324219,0.9829102,0.09179688,-0.112793,-0.3139648
0.25,-0.25,-0.1875,-0.03076172,0.007324219,0.9829102,0.09179688,-0.112793,-0.3139648
0,-0.0625,0,-0.03076172,0.01123047,0.9829102,0.078125,-0.1118164,-0.3208008
0.625,-0.875,-0.1875,-0.03857422,-0.003417969,0.9555664,0.078125,-0.1118164,-0.3208008
0,-0.375,-0.4375,-0.03466797,0.007324219,0.9750977,0.078125,-0.1118164,-0.3208008
-0.25,0.1875,-0.1875,-0.03466797,0.003417969,0.9282227,0.0859375,-0.1083984,-0.3095703
0.4375,-0.5625,-0.1875,-0.02294922,0,0.9672852,0.0859375,-0.1083984,-0.3095703
0.25,0.25,-0.0625,-0.05810547,0.01123047,0.9868164,0.0859375,-0.1083984,-0.3095703
0.3125,0,-0.375,-0.03076172,0.003417969,0.9633789,0.07910156,-0.1142578,-0.3139648
0.5625,0.125,-0.4375,-0.02685547,-0.007324219,0.9633789,0.07910156,-0.1142578,-0.3139648
-0.0625,0,-0.375,-0.05419922,-0.01513672,0.9829102,0.07910156,-0.1142578,-0.3139648
0.6875,-0.3125,-0.5625,-0.03466797,-0.007324219,0.9672852,0.07910156,-0.1142578,-0.3139648
0.1875,0.4375,-0.3125,-0.03466797,0.007324219,0.9672852,0.08398438,-0.112793,-0.3237305
0.6875,0.375,-0.5,-0.04638672,0.01904297,0.9868164,0.08398438,-0.112793,-0.3237305
0.875,-0.4375,-0.25,-0.02685547,-0.007324219,0.9633789,0.08398438,-0.112793,-0.3237305
0.5,-0.375,-0.3125,-0.05029297,0,0.9750977,0.09521484,-0.1142578,-0.3125
0.75,0.1875,0.0625,-0.02685547,0.01123047,0.9907227,0.09521484,-0.1142578,-0.3125
-0.375,0.875,-0.3125,-0.03857422,0.01123047,0.9868164,0.09521484,-0.1142578,-0.3125
0,-0.25,-0.125,-0.05029297,-0.007324219,0.9829102,0.09082031,-0.1142578,-0.3222656
0.5625,-0.125,-0.0625,-0.03857422,0.003417969,0.9829102,0.09082031,-0.1142578,-0.3222656
0.375,-0.125,-0.5,-0.01513672,-0.003417969,0.9829102,0.09082031,-0.1142578,-0.3222656
0.3125,-0.375,-0.375,-0.04638672,0.003417969,0.9907227,0.09082031,-0.1142578,-0.3222656
-0.375,-0.0625,0,-0.04248047,0.003417969,0.9594727,0.09082031,-0.1142578,-0.3222656
-0.0625,-0.4375,-0.4375,-0.03857422,0.007324219,0.9672852,0.09082031,-0.1142578,-0.3222656
0.125,-0.25,-0.5,-0.05419922,0.01123047,0.9750977,0.09082031,-0.1142578,-0.3222656
-0.1875,0.125,-0.4375,-0.003417969,-0.01123047,0.9672852,0.0859375,-0.109375,-0.3095703
-0.1875,0,-0.375,-0.02294922,0.01123047,0.9633789,0.0859375,-0.109375,-0.3095703
0,-0.25,-0.5625,-0.01513672,0.01513672,0.9829102,0.0859375,-0.109375,-0.3095703
0.125,-0.25,-0.3125,-0.03857422,0.01123047,0.9711914,0.09326172,-0.1176758,-0.3168945
0.125,-0.1875,-0.25,-0.04638672,0.01904297,0.9555664,0.09326172,-0.1176758,-0.3168945
0.5,0.3125,-0.25,-0.03857422,0.01513672,0.9829102,0.09326172,-0.1176758,-0.3168945
0.4375,-0.0625,-0.6875,-0.03076172,0.003417969,0.9711914,0.09326172,-0.1176758,-0.3168945
0.3125,-0.375,-0.5625,-0.04248047,0,0.9516602,0.09326172,-0.1176758,-0.3168945
-0.0625,0,-0.0625,-0.03857422,-0.003417969,0.9633789,0.09326172,-0.1176758,-0.3168945
0.1875,-0.3125,-0.0625,-0.03076172,0.01123047,0.9829102,0.09326172,-0.1176758,-0.3168945
0.25,0.1875,-0.25,-0.04248047,-0.01123047,0.9594727,0.09179688,-0.1118164,-0.3208008
0.5625,-0.1875,-0.125,-0.04638672,0.003417969,0.9829102,0.09179688,-0.1118164,-0.3208008
0.3125,0.125,-0.25,-0.02294922,0,0.9516602,0.09179688,-0.1118164,-0.3208008
0.25,0,-0.5,-0.03857422,0,0.9829102,0.09179688,-0.109375,-0.3193359
-0.375,0.1875,-0.1875,-0.04248047,0.01513672,0.9829102,0.09179688,-0.109375,-0.3193359
0.1875,-0.375,-0.625,-0.03076172,0.01513672,0.9711914,0.09179688,-0.109375,-0.3193359
0.25,0.125,-0.4375,-0.03076172,0,0.9750977,0.08837891,-0.1083984,-0.3139648
0.375,-0.25,-0.3125,-0.03857422,0.01123047,0.9868164,0.08837891,-0.1083984,-0.3139648
0.625,-0.4375,-0.5625,-0.03076172,0.003417969,0.9790039,0.08837891,-0.1083984,-0.3139648
0.375,-0.1875,-0.375,-0.03857422,0,0.9868164,0.08837891,-0.1083984,-0.3139648
-0.1875,0.1875,-0.75,-0.007324219,0.003417969,0.9829102,0.09423828,-0.112793,-0.3178711
0.1875,-0.6875,-0.5,-0.03076172,0.01123047,0.9711914,0.09423828,-0.112793,-0.3178711
0,-0.0625,-0.5625,-0.05810547,-0.003417969,0.9711914,0.09423828,-0.112793,-0.3178711
0.375,0.4375,-0.375,-0.02294922,0.007324219,0.9672852,0.08837891,-0.1152344,-0.3178711
0,-0.375,-0.1875,-0.03076172,0,0.9829102,0.08837891,-0.1152344,-0.3178711
0.5625,-0.0625,-0.5,-0.04248047,-0.003417969,0.9672852,0.08837891,-0.1152344,-0.3178711
-0.0625,0.1875,-0.1875,-0.05029297,0.01513672,0.9829102,0.08740234,-0.112793,-0.3125
0.0625,0.0625,-0.25,-0.02685547,0.01123047,0.9907227,0.08740234,-0.112793,-0.3125
0.25,0.375,-0.6875,-0.02294922,0.003417969,0.9633789,0.08740234,-0.112793,-0.3125
0.0625,0.4375,0,-0.04248047,0.003417969,0.9829102,0.08740234,-0.112793,-0.3125
0.375,-0.375,-0.5625,-0.04638672,0.01513672,0.9633789,0.08837891,-0.112793,-0.3178711
0.25,-0.5,0,-0.05029297,0.003417969,0.9633789,0.08837891,-0.112793,-0.3178711
0.3125,-0.25,0.25,-0.03857422,0,0.9750977,0.08837891,-0.112793,-0.3178711
0.125,0.125,-0.25,-0.01513672,0.01513672,0.9829102,0.08837891,-0.1162109,-0.3168945
0.125,0.125,-0.0625,-0.02685547,0.01123047,0.9594727,0.08837891,-0.1162109,-0.3168945
0.5,0.125,-0.625,-0.05810547,0.01513672,0.9516602,0.08837891,-0.1162109,-0.3168945
0.125,0,-0.4375,-0.03857422,0.007324219,0.9868164,0.08740234,-0.109375,-0.3168945
0.25,0.1875,-0.4375,-0.03857422,0,0.9829102,0.08740234,-0.109375,-0.3168945
0.5,0.125,-0.875,-0.007324219,0.007324219,0.9633789,0.08740234,-0.109375,-0.3168945
0,-0.6875,-0.5625,-0.01513672,0.01513672,0.9555664,0.08740234,-0.109375,-0.3168945
0.625,0.375,-0.25,-0.02294922,0.007324219,0.9555664,0.08740234,-0.109375,-0.3168945
0.25,-0.4375,-0.625,-0.04248047,0.01123047,0.9672852,0.08740234,-0.109375,-0.3168945
0.3125,0,-0.5,-0.03466797,0.003417969,0.9790039,0.08740234,-0.109375,-0.3168945
0.5,-0.1875,-0.375,-0.02294922,-0.003417969,0.9829102,0.09082031,-0.1108398,-0.3222656
0.1875,0,-0.0625,-0.02685547,0.003417969,0.9516602,0.09082031,-0.1108398,-0.3222656
0.25,0.375,-0.4375,-0.03466797,0.01513672,0.9868164,0.09082031,-0.1108398,-0.3222656
0.5625,0,0.25,-0.01513672,0.01123047,0.9633789,0.09082031,-0.1162109,-0.3178711
-0.3125,-0.9375,-0.75,-0.03076172,0,0.9672852,0.09082031,-0.1162109,-0.3178711
0,0.0625,-0.1875,-0.03076172,-0.007324219,0.9868164,0.09082031,-0.1162109,-0.3178711
-0.0625,-0.625,-0.4375,-0.03857422,-0.003417969,0.9829102,0.09082031,-0.1162109,-0.3178711
0.25,-0.625,-0.3125,-0.03857422,0.007324219,0.9829102,0.09082031,-0.1162109,-0.3178711
0.125,-0.4375,-0.25,-0.03076172,-0.003417969,0.9555664,0.09082031,-0.1162109,-0.3178711
0,0.1875,-0.1875,-0.04638672,0.007324219,0.9711914,0.09082031,-0.1162109,-0.3178711
-0.25,0,-0.625,-0.03857422,0,0.9594727,0.078125,-0.1118164,-0.3139648
-0.3125,-0.625,0,-0.05029297,0.01123047,0.9829102,0.078125,-0.1118164,-0.3139648
0,-0.625,-0.0625,-0.04248047,0,1.001953,0.078125,-0.1118164,-0.3139648
0.4375,-0.5,-0.0625,-0.04248047,0.01513672,0.9750977,0.08398438,-0.109375,-0.3168945
-0.0625,0,0,-0.02685547,-0.007324219,0.9829102,0.08398438,-0.109375,-0.3168945
0.6875,-0.625,-0.625,-0.04638672,0.01123047,0.9750977,0.08398438,-0.109375,-0.3168945
-0.25,-0.1875,-0.125,-0.03466797,-0.007324219,0.9829102,0.08740234,-0.1118164,-0.3125
0.3125,-0.625,-0.1875,-0.03466797,0.01513672,0.9672852,0.08740234,-0.1118164,-0.3125
-0.125,-0.0625,-0.3125,-0.01513672,-0.007324219,0.9868164,0.08740234,-0.1118164,-0.3125
0,0,-0.3125,-0.03466797,0,0.9594727,0.08740234,-0.1118164,-0.3125
-0.8125,-0.1875,0.375,-0.04248047,0.007324219,0.9594727,0.09326172,-0.109375,-0.3222656
0.25,-0.5,-0.25,-0.03076172,0.007324219,0.9829102,0.09326172,-0.109375,-0.3222656
-0.0625,-0.4375,0,-0.01513672,0.007324219,0.9555664,0.09326172,-0.109375,-0.3222656
-0.375,0,-0.4375,-0.03466797,0.01513672,0.9829102,0.09179688,-0.1162109,-0.3154297
0.5,-0.25,0.0625,-0.03466797,0.01513672,0.9633789,0.09179688,-0.1162109,-0.3154297
0.125,-0.3125,-0.875,-0.03076172,0,0.9711914,0.09179688,-0.1162109,-0.3154297
0.4375,-1.0625,-0.25,-0.01904297,0.01904297,0.9829102,0.08154297,-0.1069336,-0.3168945
0.1875,-0.0625,-0.0625,-0.04638672,0.007324219,0.9907227,0.08154297,-0.1069336,-0.3168945
0,-0.4375,-0.3125,-0.03857422,0.003417969,0.9711914,0.08154297,-0.1069336,-0.3168945
-0.0625,0.125,-0.375,-0.03076172,0.01123047,0.9633789,0.08154297,-0.1069336,-0.3168945
