Packet number,Gyroscope X (deg/s),Gyroscope Y (deg/s),Gyroscope Z (deg/s),Accelerometer X (g),Accelerometer Y (g),Accelerometer Z (g),Magnetometer X (G),Magnetometer Y (G),Magnetometer Z (G)
3,-0.0625,-0.25,-0.0625,-0.01513672,0.03076172,0.9711914,0.02685547,0.02587891,-0.3237305
5,-0.0625,-0.25,-0.0625,-0.01513672,0.03076172,0.9711914,0.02685547,0.02587891,-0.3237305
6,-0.0625,0.0625,0,-0.04638672,0.02685547,0.9672852,0.03857422,0.02587891,-0.3222656
8,-0.375,-0.25,-0.375,-0.04638672,0.02294922,0.9790039,0.03857422,0.02587891,-0.3222656
9,-0.0625,0.5625,0.0625,-0.05029297,0.04248047,0.9711914,0.03857422,0.02587891,-0.3222656
11,-0.125,-0.125,-0.1875,-0.03857422,0.02685547,0.9829102,0.03613281,0.02148438,-0.3110352
12,0.125,0.5,-0.0625,-0.04638672,0.03466797,0.9672852,0.03613281,0.02148438,-0.3110352
14,0.125,0.5,-0.375,-0.05419922,0.03466797,0.9555664,0.03613281,0.02148438,-0.3110352
16,0.1875,-0.875,-0.3125,-0.03466797,0.04638672,0.9672852,0.03125,0.02587891,-0.3251953
18,0,0.625,-0.1875,-0.03857422,0.04638672,0.9672852,0.03125,0.02587891,-0.3251953
19,0.0625,0.6875,-0.6875,-0.03466797,0.02294922,0.9829102,0.03125,0.02587891,-0.3251953
21,0.3125,-0.125,0,-0.04638672,0.01513672,0.9633789,0.03125,0.02587891,-0.3251953
22,0,0.3125,-0.1875,-0.05029297,0.01513672,0.9750977,0.03125,0.02587891,-0.3251953
24,0.3125,-0.125,-0.875,-0.04248047,0.01123047,0.9672852,0.03125,0.02587891,-0.3251953
25,-0.0625,-0.6875,-0.375,-0.01904297,0.02685547,0.9829102,0.03125,0.02587891,-0.3251953
27,-0.125,0.0625,-0.125,-0.02294922,0.04248047,0.9633789,0.03271484,0.03173828,-0.3139648
28,0.125,-0.5,-0.375,-0.05029297,0.02685547,0.9477539,0.03271484,0.03173828,-0.3139648
31,0.125,-0.1875,-0.5625,-0.04248047,0.01904297,0.9790039,0.03271484,0.03173828,-0.3139648
32,-1.0625,-1.1875,-0.0625,-0.02294922,0.01513672,0.9750977,0.03369141,0.02001953,-0.3178711
34,-0.6875,-1.5,-0.125,-0.04638672,0.04248047,0.9594727,0.03369141,0.02001953,-0.3178711
35,-0.4375,-0.6875,0.125,-0.05810547,0.03466797,0.9243164,0.03369141,0.02001953,-0.3178711
37,-1.1875,-0.6875,-0.3125,-0.04638672,0.007324219,0.9868164,0.03369141,0.02001953,-0.3178711
38,-0.0625,0,-0.25,-0.01123047,0.02685547,0.9477539,0.03369141,0.02001953,-0.3178711
40,-0.5625,-0.6875,0.1875,-0.03857422,0.03466797,0.9868164,0.03369141,0.02001953,-0.3178711
41,0,-0.5625,-0.3125,-0.03857422,0.01513672,0.9360352,0.03369141,0.02001953,-0.3178711
44,0.0625,0.0625,0,-0.01513672,0.02685547,0.9711914,0.02539063,0.02832031,-0.3222656
45,0.25,-0.625,-0.1875,-0.03076172,0.04248047,0.9633789,0.02539063,0.02832031,-0.3222656
47,-0.3125,0.6875,-0.25,-0.03076172,0.01513672,0.9829102,0.02539063,0.02832031,-0.3222656
48,0.125,0.125,0,-0.03466797,0.007324219,0.9829102,0.03125,0.02490234,-0.3266602
50,-0.25,0,-0.4375,-0.03857422,0.02685547,0.9711914,0.03125,0.02490234,-0.3266602
51,0.6875,0.0625,-0.1875,-0.05029297,0.01513672,0.9711914,0.03125,0.02490234,-0.3266602
53,-0.3125,-0.0625,0,-0.03466797,0.03076172,0.9868164,0.02441406,0.02734375,-0.3208008
54,0.3125,0.375,-0.25,-0.04638672,0.03076172,0.9672852,0.02441406,0.02734375,-0.3208008
56,-0.125,-0.375,-0.25,-0.03466797,0.04248047,0.9829102,0.02441406,0.02734375,-0.3208008
58,0,0.0625,-0.125,-0.05029297,0.02685547,0.9633789,0.02441406,0.02734375,-0.3208008
60,-0.25,-0.125,-0.1875,-0.02685547,0.02685547,0.9829102,0.02783203,0.02001953,-0.3168945
61,-0.125,-0.25,0,-0.03466797,0.01513672,0.9672852,0.02783203,0.02001953,-0.3168945
63,-0.3125,0,0.125,-0.05029297,0.01904297,0.9829102,0.02783203,0.02001953,-0.3168945
64,0.3125,0.1875,-0.375,-0.04638672,0.03076172,0.9711914,0.03466797,0.02929688,-0.3222656
66,0.5,0,0,-0.02685547,0.02294922,0.9633789,0.03466797,0.02929688,-0.3222656
67,-0.3125,-0.125,0,-0.03076172,0.02685547,0.9829102,0.03466797,0.02929688,-0.3222656
69,0.0625,0.1875,-0.3125,-0.03857422,0.03466797,0.9672852,0.03710938,0.02246094,-0.3125
70,0.1875,-0.5,-0.0625,-0.03857422,0.05029297,0.9672852,0.03710938,0.02246094,-0.3125
73,1.0625,-0.25,-0.4375,-0.03076172,0.02294922,0.9829102,0.03710938,0.02246094,-0.3125
74,0.1875,0,-0.6875,-0.03466797,0.02685547,0.9829102,0.03710938,0.02246094,-0.3125
76,0.25,-0.25,-0.25,-0.04248047,0.03466797,0.9790039,0.03710938,0.02246094,-0.3125
77,0.1875,-0.1875,0,-0.03466797,0.02685547,0.9594727,0.03710938,0.02246094,-0.3125
79,0.0625,0.375,-0.375,-0.03076172,0.04248047,0.9868164,0.03710938,0.02246094,-0.3125
80,-0.0625,-0.6875,-0.5,-0.03857422,0.03076172,0.9594727,0.03125,0.02246094,-0.3237305
82,0.375,-0.3125,-0.6875,-0.03076172,0.03466797,0.9711914,0.03125,0.02246094,-0.3237305
83,0.5,-0.75,-0.125,-0.02294922,0.03466797,0.9829102,0.03125,0.02246094,-0.3237305
86,-0.125,-0.375,-0.125,-0.03466797,0.01513672,0.9438477,0.02539063,0.0234375,-0.3193359
87,-0.3125,0,-0.8125,-0.03857422,0.02685547,0.9829102,0.02539063,0.0234375,-0.3193359
89,0.125,0,-0.4375,-0.03466797,0.03466797,0.9750977,0.02539063,0.0234375,-0.3193359
90,0.625,-0.6875,-1.1875,-0.03857422,0.03857422,0.9594727,0.02539063,0.0234375,-0.3193359
92,-0.375,-0.25,-0.5,-0.04248047,0.01513672,0.9672852,0.02539063,0.0234375,-0.3193359
93,0.4375,-0.5625,-0.5625,-0.04248047,0.04248047,0.9360352,0.02539063,0.0234375,-0.3193359
95,0.75,-0.9375,-0.5625,-0.03466797,0.04638672,0.9790039,0.02539063,0.0234375,-0.3193359
96,0.75,-0.4375,-0.1875,-0.007324219,0.01513672,0.9829102,0.03125,0.02587891,-0.3208008
98,0.5,-0.125,-0.4375,-0.03466797,0.03076172,0.9829102,0.03125,0.02587891,-0.3208008
100,1.625,-0.5625,-0.125,-0.01904297,0.02294922,0.9946289,0.03125,0.02587891,-0.3208008
102,0.5625,-0.125,-0.75,-0.04248047,0.03076172,1.001953,0.02539063,0.02246094,-0.3208008
103,-0.625,1,-0.3125,-0.05419922,0.01123047,0.9594727,0.02539063,0.02246094,-0.3208008
105,1.6875,1.1875,-0.5625,-0.03857422,0.04638672,0.9946289,0.02539063,0.02246094,-0.3208008
107,1.875,-1.4375,-0.875,-0.03076172,0.04248047,0.9868164,0.02685547,0.02929688,-0.3154297
109,-1.25,0.4375,-0.3125,-0.04638672,0.01123047,0.9711914,0.02685547,0.02929688,-0.3154297
110,1.125,1.625,0.5625,-0.03857422,0.03076172,0.9672852,0.02685547,0.02929688,-0.3154297
112,0.875,-2.5,-0.4375,-0.03466797,0.02685547,0.9594727,0.02685547,0.02929688,-0.3154297
113,-2.0625,1,0,-0.01904297,0.02685547,0.9243164,0.02783203,0.02734375,-0.3334961
116,1.4375,0.0625,-0.5,-0.05029297,0.01513672,0.9594727,0.02783203,0.02734375,-0.3334961
117,-0.5,-0.1875,0,-0.02685547,0.01123047,0.9868164,0.02783203,0.02734375,-0.3334961
119,-0.0625,-0.375,-0.4375,-0.04248047,0.01123047,0.9829102,0.03613281,0.02929688,-0.3154297
120,0,-0.25,0.0625,-0.05029297,0.02294922,0.9907227,0.03613281,0.02929688,-0.3154297
122,0.1875,-0.8125,-0.5625,-0.03466797,0.02685547,0.9907227,0.03613281,0.02929688,-0.3154297
123,0.0625,-0.5,0.0625,-0.01513672,0.01513672,0.9711914,0.03466797,0.02832031,-0.3193359
125,-0.25,-0.5625,-0.1875,-0.02685547,0.03466797,0.9829102,0.03466797,0.02832031,-0.3193359
126,0,-0.6875,-0.3125,-0.03857422,0.03466797,0.9868164,0.03466797,0.02832031,-0.3193359
128,0.0625,-0.625,0,-0.03857422,0.01904297,0.9829102,0.03466797,0.02832031,-0.3193359
129,0.5,-1,-0.375,-0.05029297,0,0.9790039,0.03857422,0.02490234,-0.3208008
131,0,0,-0.25,-0.05419922,0.01513672,0.9672852,0.03857422,0.02490234,-0.3208008
133,0,0,-0.1875,-0.03466797,0.03466797,0.9477539,0.03857422,0.02490234,-0.3208008
135,0.625,0.0625,-0.125,-0.03466797,0.03076172,0.9672852,0.03613281,0.0234375,-0.3154297
136,0.625,0.1875,-0.4375,-0.01123047,0.02294922,0.9633789,0.03613281,0.0234375,-0.3154297
138,0.4375,-0.125,-0.8125,-0.03466797,0.01513672,0.9672852,0.03613281,0.0234375,-0.3154297
139,0.625,0,-0.375,-0.04248047,0.03857422,0.9711914,0.0234375,0.02490234,-0.3168945
141,0.875,0.4375,-0.3125,-0.04248047,0.01513672,0.9711914,0.0234375,0.02490234,-0.3168945
143,0.5,0.1875,-0.125,-0.02685547,0.01513672,0.9477539,0.0234375,0.02490234,-0.3168945
145,0.8125,0.9375,-0.6875,-0.03466797,0.03076172,0.9633789,0.0234375,0.02490234,-0.3168945
146,0.9375,1,-0.1875,-0.02294922,0.02685547,0.9438477,0.03271484,0.02734375,-0.3208008
148,0.5625,0.9375,-0.9375,-0.06201172,0.02685547,0.9829102,0.03271484,0.02734375,-0.3208008
149,0.9375,0.5,-0.4375,-0.04248047,0.03076172,0.9672852,0.03271484,0.02734375,-0.3208008
151,0.6875,0.5625,-1.0625,-0.04248047,0.02685547,0.9555664,0.03027344,0.02490234,-0.3208008
152,0.9375,0,-0.9375,-0.04248047,0.04248047,0.9750977,0.03027344,0.02490234,-0.3208008
154,0.8125,1.125,-0.6875,-0.04248047,0.03076172,0.9711914,0.03027344,0.02490234,-0.3208008
155,0.875,1.0625,-0.625,-0.01513672,0.03076172,0.9321289,0.03271484,0.02929688,-0.3154297
158,1.1875,0.5625,-0.8125,-0.04638672,0.04248047,0.9594727,0.03271484,0.02929688,-0.3154297
159,1.25,0.3125,-0.4375,-0.05810547,0.05029297,0.9907227,0.03271484,0.02929688,-0.3154297
161,1.1875,0.8125,-0.375,-0.03857422,0.04248047,0.9672852,0.03271484,0.02929688,-0.3154297
162,1.6875,1.3125,-0.4375,-0.04248047,0.03076172,0.9555664,0.03271484,0.02929688,-0.3154297
164,1.375,1.1875,-1.125,-0.04248047,0.01513672,0.9594727,0.03271484,0.02929688,-0.3154297
165,1.3125,0.5,-1.1875,-0.03466797,0.01904297,0.9711914,0.03271484,0.02929688,-0.3154297
167,1.25,0.6875,-1.125,-0.05810547,0.02685547,0.9477539,0.02685547,0.02246094,-0.3168945
168,0.25,0.5,-0.125,-0.05419922,0.01904297,0.9633789,0.02685547,0.02246094,-0.3168945
171,1.0625,0.5,-0.75,-0.05029297,0.04248047,0.9829102,0.02685547,0.02246094,-0.3168945
172,0.875,0.0625,-0.5,-0.06591797,0.04248047,0.9594727,0.02539063,0.0234375,-0.3178711
174,1,0.8125,-0.25,-0.06982422,0.03076172,0.9946289,0.02539063,0.0234375,-0.3178711
175,0.75,0.1875,-0.3125,-0.03857422,0.01513672,0.9868164,0.02539063,0.0234375,-0.3178711
177,0.5625,0,-0.625,-0.02685547,0.02685547,0.9594727,0.02539063,0.0234375,-0.3178711
178,0.9375,0.4375,-0.125,-0.03857422,0.03857422,0.9829102,0.02539063,0.0234375,-0.3178711
180,0.875,0.3125,0.0625,-0.03076172,0.02294922,0.9829102,0.02539063,0.0234375,-0.3178711
181,0.625,0.25,-0.3125,-0.03466797,0.01513672,0.9711914,0.02539063,0.0234375,-0.3178711
183,1,0.0625,-0.1875,-0.03076172,0.02685547,0.9907227,0.02441406,0.02490234,-0.3081055
185,0.875,0.0625,-0.625,-0.04248047,0.03076172,0.9672852,0.02441406,0.02490234,-0.3081055
187,0.5625,-0.0625,-0.3125,-0.02294922,0.01513672,0.9672852,0.02441406,0.02490234,-0.3081055
188,1,0.25,0,-0.03857422,0.01513672,0.9594727,0.03271484,0.02734375,-0.3193359
190,0.5625,0.0625,0,-0.03076172,0.03857422,0.9907227,0.03271484,0.02734375,-0.3193359
191,0.5625,0.3125,-0.5,-0.03076172,0.03076172,0.9516602,0.03271484,0.02734375,-0.3193359
193,1.0625,0.4375,0,-0.03076172,0.03857422,0.9907227,0.03466797,0.03173828,-0.3168945
194,0.6875,0.625,-0.4375,-0.03076172,0.03857422,0.9516602,0.03466797,0.03173828,-0.3168945
196,0.4375,0.4375,0,-0.05029297,0.007324219,0.9829102,0.03466797,0.03173828,-0.3168945
197,0.5625,1,-0.25,-0.04638672,0.02294922,0.9868164,0.03466797,0.03173828,-0.3168945
200,0.75,0.3125,-0.8125,-0.05029297,0.01513672,0.9711914,0.03027344,0.02734375,-0.3208008
201,0.75,0.6875,-0.4375,-0.04248047,0.01513672,0.9555664,0.03027344,0.02734375,-0.3208008
203,0.5625,0.375,-0.25,-0.04638672,0.01513672,0.9868164,0.03027344,0.02734375,-0.3208008
204,0.75,0,-0.125,-0.04248047,0.04638672,0.9633789,0.02685547,0.0234375,-0.3168945
206,0.6875,0.0625,-0.5625,-0.04248047,0.03076172,0.9907227,0.02685547,0.0234375,-0.3168945
207,0.625,0.1875,-0.4375,-0.04248047,0.02294922,0.9750977,0.02685547,0.0234375,-0.3168945
209,0.875,0.1875,0,-0.04248047,0.01904297,0.9711914,0.03613281,0.02832031,-0.3193359
211,0.75,-0.1875,0.4375,-0.04638672,0.02685547,0.9711914,0.03613281,0.02832031,-0.3193359
214,0.875,-0.1875,0.1875,-0.04248047,0.02294922,0.9633789,0.03613281,0.02832031,-0.3193359
215,0.3125,-0.25,0.5625,-0.04248047,0.01513672,0.9711914,0.03613281,0.02832031,-0.3193359
217,0.625,-0.125,0.0625,-0.04248047,0.03857422,0.9594727,0.03613281,0.02832031,-0.3193359
218,0.3125,-0.375,0.0625,-0.03857422,0.03076172,0.9790039,0.03613281,0.02832031,-0.3193359
220,0.6875,0.125,0.375,-0.03466797,0.04248047,0.9829102,0.03613281,0.02832031,-0.3193359
221,0.1875,-0.625,0,-0.03857422,0.01513672,0.9829102,0.03857422,0.02832031,-0.3178711
223,0.1875,0,0.1875,-0.02685547,0.01123047,0.9946289,0.03857422,0.02832031,-0.3178711
224,0.5625,0.0625,0.375,-0.02685547,0.01904297,0.9790039,0.03857422,0.02832031,-0.3178711
227,0.1875,0,0.1875,-0.03466797,0.05029297,0.9711914,0.03710938,0.03076172,-0.3222656
228,0.125,-0.0625,0.4375,-0.03076172,0.01123047,0.9711914,0.03710938,0.03076172,-0.3222656
230,0.5625,-0.0625,0.1875,-0.01513672,0.03466797,0.9633789,0.03710938,0.03076172,-0.3222656
231,0.25,0.5625,0.0625,-0.03857422,0.04638672,0.9829102,0.03710938,0.03076172,-0.3222656
233,0.3125,0.1875,0.375,-0.01513672,0.01513672,0.9829102,0.03710938,0.03076172,-0.3222656
234,0.5,0,0.25,-0.02294922,0.02685547,0.9633789,0.03710938,0.03076172,-0.3222656
236,0.4375,0.6875,0,-0.04638672,0.02685547,0.9750977,0.03710938,0.03076172,-0.3222656
237,0.5625,-0.0625,0.3125,-0.02294922,0.03466797,0.9829102,0.02783203,0.02929688,-0.3222656
239,0.125,-0.3125,0.1875,-0.04248047,0.04248047,0.9790039,0.02783203,0.02929688,-0.3222656
240,-0.25,-0.125,0.5,-0.03857422,0.03076172,0.9829102,0.02783203,0.02929688,-0.3222656
242,0.625,-0.625,0.75,-0.01513672,0.03076172,0.9868164,0.02783203,0.02587891,-0.3266602
243,0.25,0.0625,0.875,-0.04638672,0.03857422,0.9829102,0.02783203,0.02587891,-0.3266602
245,0.3125,0.75,0.8125,-0.05029297,0.01513672,0.9829102,0.02783203,0.02587891,-0.3266602
247,-0.0625,-1,0.5625,-0.03857422,0.04248047,0.9790039,0.03027344,0.02001953,-0.3266602
249,0.1875,-0.25,0.8125,-0.01513672,0.03466797,0.9907227,0.03027344,0.02001953,-0.3266602
250,0,-0.5,0.6875,-0.05810547,0.02294922,0.9750977,0.03027344,0.02001953,-0.3266602
252,-0.5625,-0.375,0.375,-0.03076172,0.04638672,0.9477539,0.03027344,0.02001953,-0.3266602
253,-0.4375,-0.75,1.25,-0.04248047,0.01904297,0.9711914,0.03710938,0.02246094,-0.3193359
256,-0.8125,-0.625,0.8125,-0.03857422,0.03857422,0.9750977,0.03710938,0.02246094,-0.3193359
257,0,-0.4375,0.75,-0.03076172,0.01513672,0.9555664,0.03710938,0.02246094,-0.3193359
259,-0.1875,-0.6875,0.5625,-0.06201172,0.03857422,0.9829102,0.02880859,0.02490234,-0.3154297
260,-0.3125,-0.5,0.5625,-0.03857422,0.01513672,0.9555664,0.02880859,0.02490234,-0.3154297
262,-0.375,-0.625,1,-0.03857422,0.007324219,0.9594727,0.02880859,0.02490234,-0.3154297
263,-0.375,-1.1875,1,-0.04638672,0.02294922,0.9516602,0.02880859,0.02832031,-0.3178711
265,-0.625,0,0.75,-0.03466797,0.03466797,0.9477539,0.02880859,0.02832031,-0.3178711
266,-0.125,-0.375,1.375,-0.03076172,0.01513672,0.9868164,0.02880859,0.02832031,-0.3178711
269,0,-0.3125,0.75,-0.04638672,0.03857422,0.9868164,0.02880859,0.02832031,-0.3178711
270,-0.375,-0.25,0.625,-0.04638672,0.03857422,0.9829102,0.03271484,0.03271484,-0.3193359
272,-0.375,-0.1875,0.875,-0.03857422,0.03466797,0.9907227,0.03271484,0.03271484,-0.3193359
273,-0.25,-0.4375,1.125,-0.05419922,0.03466797,0.9946289,0.03271484,0.03271484,-0.3193359
275,-0.1875,-0.0625,0.625,-0.03466797,0.03076172,0.9790039,0.02685547,0.0234375,-0.3168945
276,0.125,-0.4375,0.3125,-0.04248047,0.03466797,0.9672852,0.02685547,0.0234375,-0.3168945
278,0.25,0.0625,1.0625,-0.04638672,0.01513672,0.9633789,0.02685547,0.0234375,-0.3168945
279,0,-0.5,0.6875,-0.03076172,0.02685547,0.9594727,0.02539063,0.02001953,-0.3095703
281,0,0,0.5,-0.02685547,0.04248047,0.9829102,0.02539063,0.02001953,-0.3095703
283,0.125,-0.625,0.6875,-0.03857422,0.03466797,0.9750977,0.02539063,0.02001953,-0.3095703
285,-0.375,-0.375,0.75,-0.04638672,0.03466797,0.9633789,0.02539063,0.02001953,-0.3095703
286,-0.0625,-0.5625,0.5,-0.05029297,0.01123047,0.9672852,0.03125,0.02734375,-0.3071289
288,0.3125,-0.1875,0.3125,-0.02294922,0.05029297,0.9672852,0.03125,0.02734375,-0.3071289
289,0.125,-0.625,0.0625,-0.02685547,0.03076172,0.9790039,0.03125,0.02734375,-0.3071289
291,-0.125,-0.6875,0.5,-0.04248047,0.01513672,0.9594727,0.02441406,0.02832031,-0.3168945
292,0.0625,-0.5,0.3125,-0.03466797,0.03466797,0.9711914,0.02441406,0.02832031,-0.3168945
294,0.0625,-0.875,-0.0625,-0.03076172,0.05029297,0.9829102,0.02441406,0.02832031,-0.3168945
295,0.3125,0.1875,0.3125,-0.03076172,0.03857422,0.9750977,0.03271484,0.0234375,-0.3154297
298,0.1875,-0.125,0.1875,-0.04248047,0.03857422,0.9477539,0.03271484,0.0234375,-0.3154297
299,0.5,-0.375,-0.25,-0.05029297,0.05029297,0.9516602,0.03271484,0.0234375,-0.3154297
301,0,-0.125,0.25,-0.04638672,0.05029297,0.9438477,0.03271484,0.0234375,-0.3154297
302,0.125,-0.375,-0.125,-0.05029297,0.01513672,0.9829102,0.03271484,0.0234375,-0.3154297
304,-0.375,-0.8125,0.125,-0.02685547,0.03466797,0.9555664,0.03271484,0.0234375,-0.3154297
305,-0.0625,-0.5625,-0.25,-0.05029297,0.01513672,0.9829102,0.03271484,0.0234375,-0.3154297
307,-0.5,-0.5625,0.1875,-0.05419922,0.03466797,0.9750977,0.02099609,0.01904297,-0.3222656
308,-0.625,-0.6875,0,-0.04638672,0.05029297,0.9516602,0.02099609,0.01904297,-0.3222656
311,0,-0.6875,0.0625,-0.03466797,0.03076172,0.9711914,0.02099609,0.01904297,-0.3222656
312,-0.0625,-0.4375,0.3125,-0.04248047,0.02685547,0.9516602,0.03125,0.02734375,-0.3168945
314,-0.5,-0.625,0.625,-0.03466797,0.01513672,0.9829102,0.03125,0.02734375,-0.3168945
316,-0.125,-0.375,0.125,-0.04248047,0.02685547,0.9672852,0.03125,0.02734375,-0.3168945
318,-0.4375,-1.125,0.625,-0.03076172,0.02294922,0.9750977,0.03271484,0.0234375,-0.3139648
319,-0.25,-0.125,0.5625,-0.04638672,0.03466797,0.9829102,0.03271484,0.0234375,-0.3139648
321,-0.125,-1.125,0.5,-0.05029297,0.01513672,0.9750977,0.03271484,0.0234375,-0.3139648
322,-0.4375,-1.0625,0.5625,-0.03466797,0.04638672,0.9555664,0.03271484,0.0234375,-0.3139648
324,-0.125,-0.3125,0.0625,-0.03076172,0.03076172,0.9868164,0.03466797,0.02734375,-0.3193359
326,0.0625,-0.25,0,-0.04248047,0.03076172,0.9868164,0.03466797,0.02734375,-0.3193359
328,-0.25,-0.8125,0.0625,-0.03857422,0.05029297,0.9711914,0.03466797,0.02734375,-0.3193359
329,-0.625,-0.5,0.0625,-0.06201172,0.03857422,0.9868164,0.03613281,0.02734375,-0.3081055
331,-0.375,-1.4375,0.5625,-0.04638672,0.03857422,0.9711914,0.03613281,0.02734375,-0.3081055
332,-0.375,-0.5,0.1875,-0.05029297,0.01513672,0.9594727,0.03613281,0.02734375,-0.3081055
334,-0.125,-1.0625,-0.1875,-0.04248047,0.03076172,0.9633789,0.03125,0.02832031,-0.3071289
335,-0.6875,-1,0.25,-0.05029297,0.01123047,0.9672852,0.03125,0.02832031,-0.3071289
337,-0.5625,-1.3125,0,-0.03857422,0.003417969,0.9672852,0.03125,0.02832031,-0.3071289
338,-0.0625,-1.75,0.25,-0.05029297,0.01904297,0.9907227,0.03125,0.02832031,-0.3071289
341,-0.625,-1.5625,0.5625,-0.04638672,0.01513672,0.9555664,0.03027344,0.02490234,-0.3222656
342,-0.4375,-1.5625,0.75,-0.02685547,0.01513672,0.9711914,0.03027344,0.02490234,-0.3222656
344,-0.9375,-2.3125,0.125,-0.04248047,0.02294922,0.9829102,0.03027344,0.02490234,-0.3222656
345,-0.4375,-1.4375,0.9375,-0.03857422,0.03857422,0.9868164,0.02880859,0.0234375,-0.3208008
347,0.0625,-1.9375,0.6875,-0.05029297,0.03076172,0.9829102,0.02880859,0.0234375,-0.3208008
348,-0.625,-1.6875,0.875,-0.03857422,0.007324219,0.9829102,0.02880859,0.0234375,-0.3208008
350,-0.75,-2.625,0.5625,-0.03857422,0.01123047,0.9672852,0.02197266,0.02001953,-0.3208008
351,-0.625,-2.5,0.8125,-0.03857422,0.01513672,0.9633789,0.02197266,0.02001953,-0.3208008
353,0,-2.875,0.9375,-0.04248047,0.05810547,0.9829102,0.02197266,0.02001953,-0.3208008
354,-0.8125,-1.875,1,-0.04248047,0.02685547,0.9633789,0.02197266,0.02001953,-0.3208008
356,-0.6875,-2.3125,0.875,-0.03076172,0.03076172,0.9711914,0.02197266,0.02001953,-0.3208008
357,-0.4375,-2.375,1.125,-0.03076172,0.04248047,0.9711914,0.02197266,0.02001953,-0.3208008
359,-0.875,-2.5625,1.125,-0.03076172,0.03466797,0.9750977,0.02197266,0.02001953,-0.3208008
360,-0.9375,-2.4375,1,-0.03466797,0.01123047,0.9829102,0.04296875,0.02587891,-0.3168945
362,-1.125,-1.8125,0.9375,-0.04248047,0.03857422,0.9555664,0.04296875,0.02587891,-0.3168945
364,-0.625,-2.375,0.625,-0.01513672,0.02294922,0.9711914,0.04296875,0.02587891,-0.3168945
366,-0.75,-2.4375,0.8125,-0.03857422,0.01513672,0.9672852,0.03710938,0.02832031,-0.3193359
368,-1.125,-2.25,0.5,-0.03076172,0.03466797,0.9672852,0.03710938,0.02832031,-0.3193359
370,-0.8125,-2.375,0.875,-0.03076172,0.03466797,0.9477539,0.03710938,0.02832031,-0.3193359
371,-0.25,-1.25,0.625,-0.02685547,0.02685547,0.9672852,0.03710938,0.02832031,-0.3193359
373,-0.1875,-1.1875,0.1875,-0.04248047,0.03076172,0.9672852,0.03710938,0.02832031,-0.3193359
374,-0.5,-1.25,0.125,-0.05029297,0.03466797,0.9477539,0.03710938,0.02832031,-0.3193359
376,-0.375,-1.25,-0.1875,-0.02685547,0.03076172,0.9829102,0.03710938,0.02832031,-0.3193359
377,-0.125,0.1875,-0.3125,-0.01123047,0.02294922,0.9555664,0.02441406,0.03076172,-0.3193359
379,-0.125,0,-0.125,-0.02294922,0.03076172,0.9516602,0.02441406,0.03076172,-0.3193359
380,0.3125,0.5625,-0.4375,-0.01123047,0.05029297,0.9438477,0.02441406,0.03076172,-0.3193359
383,0.5,0.5,-0.375,-0.01513672,0.02294922,0.9477539,0.02880859,0.03173828,-0.3193359
384,0.5625,0.4375,-0.5625,-0.03076172,0.03466797,0.9711914,0.02880859,0.03173828,-0.3193359
386,1.25,0.625,-0.8125,-0.06201172,0.03466797,0.9516602,0.02880859,0.03173828,-0.3193359
387,1.125,1.0625,-0.5,-0.03466797,0.03466797,0.9633789,0.02441406,0.03076172,-0.3237305
389,1.375,0.625,-0.5625,-0.03857422,0.03466797,0.9672852,0.02441406,0.03076172,-0.3237305
390,1.1875,1.0625,-0.1875,-0.03076172,0.01513672,0.9790039,0.02441406,0.03076172,-0.3237305
392,0.8125,0.625,-0.8125,-0.02685547,0.01904297,0.9711914,0.02441406,0.03076172,-0.3237305
393,1.1875,0.3125,-0.75,-0.03076172,0.05029297,0.9790039,0.03125,0.03417969,-0.3095703
396,0.5625,0.125,-0.75,-0.03466797,0.01513672,0.9829102,0.03125,0.03417969,-0.3095703
397,0.6875,0,-0.4375,-0.05419922,0.02685547,0.9907227,0.03125,0.03417969,-0.3095703
399,0.6875,-0.375,-0.3125,-0.03857422,0.03076172,0.9516602,0.02441406,0.02734375,-0.3208008
400,0.75,-0.3125,-1.0625,-0.04248047,0.02685547,0.9672852,0.02441406,0.02734375,-0.3208008
402,0.625,0,-0.375,-0.05419922,0.01513672,0.9711914,0.02441406,0.02734375,-0.3208008
403,0.75,-0.5625,-0.625,-0.03466797,0.01513672,0.9594727,0.03027344,0.02001953,-0.3168945
405,0.4375,-0.3125,0,-0.03076172,0.03466797,0.9594727,0.03027344,0.02001953,-0.3168945
406,0.6875,-0.4375,-0.4375,-0.05419922,0.02685547,0.9829102,0.03027344,0.02001953,-0.3168945
408,0.625,0.125,0,-0.03857422,0.03466797,0.9829102,0.03027344,0.02001953,-0.3168945
410,0.3125,0.1875,0,-0.03076172,0.03466797,0.9672852,0.0234375,0.02246094,-0.3237305
412,1.0625,1,-0.25,-0.03466797,0.01513672,0.9790039,0.0234375,0.02246094,-0.3237305
413,0.6875,0.125,0.1875,-0.04248047,0.02294922,0.9711914,0.0234375,0.02246094,-0.3237305
415,0.9375,0.4375,0,-0.04248047,0.01513672,0.9711914,0.02539063,0.02734375,-0.3178711
416,0.6875,0.625,-0.1875,-0.02294922,0.02685547,0.9750977,0.02539063,0.02734375,-0.3178711
418,0.8125,0.6875,-0.3125,-0.003417969,0.01513672,0.9711914,0.02539063,0.02734375,-0.3178711
421,0.9375,0.6875,0,-0.03857422,0.03857422,0.9829102,0.03125,0.02832031,-0.3154297
423,0.75,0.875,-0.1875,-0.04248047,0.02294922,0.9516602,0.03125,0.02832031,-0.3154297
425,1.375,1.0625,-0.0625,-0.03857422,0.03857422,0.9829102,0.03125,0.02832031,-0.3154297
427,0.8125,0.5,0.25,-0.03466797,0.01513672,0.9555664,0.03125,0.02832031,-0.3154297
428,1,0.3125,-0.375,-0.05810547,0.03466797,0.9790039,0.03027344,0.02832031,-0.3237305
430,0.75,1.1875,-0.1875,-0.03466797,0.01904297,0.9633789,0.03027344,0.02832031,-0.3237305
431,1.1875,0.75,0.125,-0.05029297,0.03076172,0.9868164,0.03027344,0.02832031,-0.3237305
433,1.3125,0.875,0,-0.01904297,0.01904297,0.9750977,0.02880859,0.02929688,-0.3125
434,1.3125,0.875,-0.25,-0.04248047,0.02685547,0.9633789,0.02880859,0.02929688,-0.3125
436,1.4375,1,-0.6875,-0.02685547,0.04248047,0.9907227,0.02880859,0.02929688,-0.3125
437,1.0625,1.375,-0.25,-0.03466797,0.02294922,0.9711914,0.02783203,0.02734375,-0.3193359
440,1.3125,0.5625,-0.6875,-0.01513672,0.03857422,0.9711914,0.02783203,0.02734375,-0.3193359
441,0.875,0.875,-0.5625,-0.03076172,0.04248047,0.9594727,0.02783203,0.02734375,-0.3193359
443,1.5625,1.1875,-0.25,-0.02294922,0.05029297,0.9633789,0.02783203,0.02734375,-0.3193359
444,1.375,1.3125,-0.625,-0.05419922,0.04248047,0.9829102,0.02783203,0.02734375,-0.3193359
446,1.1875,1.9375,0,-0.03466797,0.03466797,0.9555664,0.02783203,0.02734375,-0.3193359
447,0.5625,1.125,-0.875,-0.04248047,0.05029297,0.9829102,0.02783203,0.02734375,-0.3193359
449,1.5,0.9375,-0.5625,-0.03076172,0.03076172,0.9594727,0.02783203,0.02734375,-0.3208008
450,0.9375,1.9375,-0.6875,-0.01904297,0.05419922,0.9829102,0.02783203,0.02734375,-0.3208008
453,1.5,1.3125,-0.4375,-0.04248047,0.03466797,0.9555664,0.02783203,0.02734375,-0.3208008
454,0.8125,0.8125,-0.625,-0.02685547,0.01513672,0.9790039,0.02880859,0.02587891,-0.3208008
456,1.25,1.375,-0.0625,-0.04248047,0.03466797,0.9868164,0.02880859,0.02587891,-0.3208008
457,0.875,1.25,-0.6875,-0.04248047,0.03466797,0.9594727,0.02880859,0.02587891,-0.3208008
459,1.1875,1.4375,-0.6875,-0.04248047,0.03466797,0.9829102,0.02685547,0.0234375,-0.3081055
460,1.125,1.125,-0.5625,-0.04638672,0.05029297,0.9516602,0.02685547,0.0234375,-0.3081055
462,0.875,0.6875,-0.1875,-0.01513672,0.02685547,0.9829102,0.02685547,0.0234375,-0.3081055
463,0.5625,1.6875,-0.5,-0.04248047,0.01513672,0.9516602,0.02685547,0.0234375,-0.3081055
465,0.9375,0.6875,-0.125,-0.04638672,0.02685547,0.9672852,0.03125,0.03173828,-0.3222656
466,1.3125,1.5,-0.625,-0.02294922,0.01513672,0.9555664,0.03125,0.03173828,-0.3222656
468,0.875,1.1875,-0.1875,-0.02685547,0.03857422,0.9829102,0.03125,0.03173828,-0.3222656
469,1.75,1.375,-0.5625,-0.01513672,0.03857422,0.9672852,0.02685547,0.02734375,-0.3154297
471,1.0625,2.625,-0.75,-0.03076172,0.04638672,0.9516602,0.02685547,0.02734375,-0.3154297
472,1.3125,1.75,-0.6875,-0.03466797,0.01904297,0.9633789,0.02685547,0.02734375,-0.3154297
475,1.1875,1.9375,-0.75,-0.04248047,0.06201172,0.9594727,0.02783203,0.03515625,-0.3193359
476,1.5625,2,-0.625,-0.01123047,0.02294922,0.9555664,0.02783203,0.03515625,-0.3193359
478,0.9375,1.875,-0.9375,-0.01513672,0.05419922,0.9829102,0.02783203,0.03515625,-0.3193359
479,1.375,1.75,-1.125,-0.02685547,0.02294922,0.9633789,0.02783203,0.03515625,-0.3193359
482,1.75,1.75,-0.875,-0.04248047,0.03466797,0.9555664,0.02539063,0.0234375,-0.3154297
483,0.75,1.625,-0.5625,-0.04248047,0.03466797,0.9672852,0.02539063,0.0234375,-0.3154297
485,1.4375,1.625,-0.625,-0.04638672,0.03857422,0.9829102,0.02539063,0.0234375,-0.3154297
486,1.0625,1.375,-0.375,-0.04638672,0.01513672,0.9907227,0.03027344,0.02587891,-0.3178711
488,0.75,0.5,-0.3125,-0.03076172,0.01513672,0.9790039,0.03027344,0.02587891,-0.3178711
489,1.0625,1,-0.3125,-0.03076172,0.03466797,0.9672852,0.03027344,0.02587891,-0.3178711
491,0.25,0.875,-0.8125,-0.03076172,0.04248047,0.9594727,0.03369141,0.03173828,-0.3208008
492,1.5,0.9375,-0.3125,-0.03466797,0.003417969,0.9711914,0.03369141,0.03173828,-0.3208008
495,1.0625,1.5625,-0.5,-0.03076172,0.01513672,0.9672852,0.03369141,0.03173828,-0.3208008
496,1.0625,1.3125,-0.25,-0.02294922,0.03076172,0.9829102,0.03369141,0.03173828,-0.3208008
498,1.0625,1.0625,-0.8125,-0.04248047,0.03076172,0.9829102,0.03369141,0.03173828,-0.3208008
499,1.125,0.3125,0.125,-0.05029297,0.03466797,0.9672852,0.03369141,0.03173828,-0.3208008
501,0.0625,0.875,0,-0.05810547,0.007324219,0.9829102,0.03369141,0.03173828,-0.3208008
502,0.5625,0.75,0,-0.04638672,0.01513672,0.9829102,0.02685547,0.01757813,-0.3139648
504,0.4375,0.4375,0,-0.03466797,0.02294922,0.9672852,0.02685547,0.01757813,-0.3139648
505,0.375,0.0625,0.25,-0.02685547,0.01513672,0.9868164,0.02685547,0.01757813,-0.3139648
507,0.0625,0,0.5625,-0.05810547,0.04248047,0.9829102,0.02197266,0.02832031,-0.3178711
509,0.1875,-0.0625,0.375,-0.05029297,0.007324219,0.9829102,0.02197266,0.02832031,-0.3178711
511,0.375,-0.125,0.4375,-0.01904297,0.04248047,0.9750977,0.02197266,0.02832031,-0.3178711
512,-0.0625,0.6875,0.5625,-0.04248047,0.05029297,0.9555664,0.02197266,0.02832031,-0.3178711
514,0.625,0.125,0.1875,-0.04638672,0.03076172,0.9829102,0.02197266,0.02832031,-0.3178711
515,0.375,0.4375,0.625,-0.03466797,0.03076172,0.9672852,0.02197266,0.02832031,-0.3178711
517,0.25,0.4375,0.5,-0.05029297,0.04638672,0.9711914,0.02197266,0.02832031,-0.3178711
518,0.4375,0,0.4375,-0.03857422,0.04248047,0.9594727,0.02099609,0.03271484,-0.3178711
520,0.0625,0.25,0.125,-0.04248047,0.02685547,0.9750977,0.02099609,0.03271484,-0.3178711
521,-0.5,-0.4375,0.5,-0.03466797,0.02685547,0.9633789,0.02099609,0.03271484,-0.3178711
524,0,-0.8125,0.625,-0.05810547,0.03466797,0.9829102,0.02880859,0.02832031,-0.3095703
526,0,-0.125,0.875,-0.07373047,0.03857422,0.9633789,0.02880859,0.02832031,-0.3095703
528,-0.625,-0.9375,0.75,-0.05419922,0.05810547,0.9672852,0.02880859,0.02832031,-0.3095703
529,-0.875,-1.6875,1.125,-0.04638672,0.04248047,0.9477539,0.02783203,0.02587891,-0.3139648
531,-1,-1.4375,0.9375,-0.03857422,0.01513672,0.9985352,0.02783203,0.02587891,-0.3139648
532,-0.625,-1.125,0.875,-0.03857422,0.03076172,0.9829102,0.02783203,0.02587891,-0.3139648
534,-0.375,-0.8125,0.5,-0.04248047,0.05029297,0.9555664,0.02783203,0.02587891,-0.3139648
535,-0.3125,-0.375,0.5,-0.02685547,0.03076172,0.9438477,0.03271484,0.02246094,-0.3125
538,0.1875,-0.75,0,-0.04248047,0.02685547,0.9555664,0.03271484,0.02246094,-0.3125
539,0.625,-0.4375,0.5,-0.007324219,0.01513672,0.9868164,0.03271484,0.02246094,-0.3125
541,0.5625,0.0625,0.0625,-0.01513672,0.02685547,0.9399414,0.02197266,0.03173828,-0.3168945
542,1.125,0.75,0,-0.04248047,0.02685547,0.9633789,0.02197266,0.03173828,-0.3168945
544,0.8125,1.1875,-0.375,-0.04248047,0.01904297,0.9555664,0.02197266,0.03173828,-0.3168945
545,1.0625,0.6875,0,-0.03076172,0.02685547,0.9711914,0.02685547,0.02001953,-0.3178711
547,1.875,1.0625,-0.125,-0.05029297,0.01123047,0.9477539,0.02685547,0.02001953,-0.3178711
548,1.625,1.125,-0.375,-0.007324219,0.01123047,0.9750977,0.02685547,0.02001953,-0.3178711
551,1.75,1.6875,-0.1875,-0.01513672,0.03466797,0.9555664,0.02685547,0.02001953,-0.3178711
552,1.6875,1.5625,-0.5625,-0.03466797,0.03857422,0.9829102,0.03271484,0.02246094,-0.3178711
554,1.6875,2.125,0,-0.05419922,0.04638672,0.9750977,0.03271484,0.02246094,-0.3178711
555,1.875,1.625,-0.3125,-0.03857422,0.03857422,0.9555664,0.03271484,0.02246094,-0.3178711
557,2.3125,1.75,-0.375,-0.03076172,0.04248047,0.9790039,0.02197266,0.01660156,-0.3178711
558,1.875,1.75,0,-0.03857422,0.05029297,0.9633789,0.02197266,0.01660156,-0.3178711
560,1.5625,1.75,0.0625,-0.05419922,0.04248047,0.9829102,0.02197266,0.01660156,-0.3178711
561,1.25,1.5625,-0.1875,-0.04248047,0.02685547,0.9829102,0.03466797,0.02001953,-0.3208008
563,1.6875,1.0625,-0.5625,-0.03076172,0.03857422,0.9711914,0.03466797,0.02001953,-0.3208008
565,1.5,1.25,-0.4375,-0.03857422,0.02294922,0.9750977,0.03466797,0.02001953,-0.3208008
567,1.125,1.375,-0.125,-0.04638672,0.04638672,0.9829102,0.03466797,0.02001953,-0.3208008
568,0.8125,1.0625,-0.5,-0.04638672,0.03076172,0.9516602,0.03466797,0.02001953,-0.3208008
570,0.6875,0.875,0,-0.04638672,0.03076172,0.9711914,0.03466797,0.02001953,-0.3208008
571,0.3125,0.5625,-0.3125,-0.01513672,0.02685547,0.9477539,0.03466797,0.02001953,-0.3208008
573,0.5625,1.1875,-0.125,-0.03857422,0.01513672,0.9829102,0.02880859,0.02148438,-0.3139648
574,0.0625,0.3125,-0.25,-0.01513672,0.05029297,0.9633789,0.02880859,0.02148438,-0.3139648
576,0.375,0.75,-0.75,-0.04638672,0.04638672,0.9672852,0.02880859,0.02148438,-0.3139648
577,0,0.4375,-0.5,-0.05029297,0.03857422,0.9750977,0.03027344,0.0234375,-0.3095703
579,-0.4375,-0.1875,-0.5625,-0.05419922,0.03466797,0.9594727,0.03027344,0.0234375,-0.3095703
580,0,0.625,-0.8125,-0.04248047,0.03466797,0.9868164,0.03027344,0.0234375,-0.3095703
582,0.125,-0.4375,-0.5625,-0.03466797,0.02685547,0.9907227,0.03027344,0.0234375,-0.3095703
583,0,0.1875,-0.75,-0.04638672,0.03076172,0.9711914,0.03027344,0.0234375,-0.3095703
585,-0.3125,0.25,-0.625,-0.03857422,0.04248047,0.9829102,0.03027344,0.0234375,-0.3095703
586,-0.8125,-0.375,-0.25,-0.05419922,0.04248047,0.9829102,0.03027344,0.0234375,-0.3095703
589,-0.8125,-1.1875,-0.4375,-0.06982422,0.04248047,0.9633789,0.02539063,0.03076172,-0.3178711
590,0,-0.5,-0.375,-0.04638672,0.05029297,0.9672852,0.02539063,0.03076172,-0.3178711
593,-0.875,-0.8125,-0.3125,-0.04248047,0.03076172,0.9672852,0.02539063,0.03076172,-0.3178711
594,-0.5625,-0.625,-0.375,-0.01513672,0.03857422,0.9829102,0.03125,0.02734375,-0.3110352
596,-0.3125,-0.3125,-0.875,-0.02685547,0,0.9672852,0.03125,0.02734375,-0.3110352
597,-0.25,-0.9375,-0.3125,-0.05419922,0.02294922,0.9829102,0.03125,0.02734375,-0.3110352
599,-0.25,-0.5625,0,-0.04248047,0.04248047,0.9672852,0.03125,0.02490234,-0.3178711
600,-0.875,0,-0.375,-0.03466797,0.02685547,0.9711914,0.03125,0.02490234,-0.3178711
602,-0.4375,-0.6875,-0.375,-0.02685547,0.02685547,0.9633789,0.03125,0.02490234,-0.3178711
603,-0.625,-0.0625,0.1875,-0.03076172,0.007324219,0.9829102,0.03125,0.02490234,-0.3178711
605,-0.6875,-0.875,-0.1875,-0.04638672,0.03076172,0.9594727,0.0234375,0.02490234,-0.3139648
607,0,-0.1875,0,-0.04638672,0.01513672,0.9594727,0.0234375,0.02490234,-0.3139648
609,-0.625,-1.1875,-0.5,-0.04248047,0.03466797,0.9672852,0.0234375,0.02490234,-0.3139648
610,-0.8125,-1.125,0,-0.04638672,0.03857422,0.9711914,0.02441406,0.02148438,-0.3110352
612,-0.8125,-1,0.1875,-0.04248047,0.01513672,0.9868164,0.02441406,0.02148438,-0.3110352
613,-0.3125,-1.125,-0.1875,-0.03076172,0.02294922,0.9711914,0.02441406,0.02148438,-0.3110352
615,-0.875,-0.625,0,-0.01513672,0.01904297,0.9946289,0.03857422,0.02001953,-0.3168945
616,-0.8125,-0.75,0.4375,-0.05810547,0.01513672,0.9790039,0.03857422,0.02001953,-0.3168945
618,-0.625,-1.1875,0.5,-0.06982422,0.03466797,0.9829102,0.03857422,0.02001953,-0.3168945
619,-0.3125,-1.125,0.375,-0.01513672,0.03466797,0.9633789,0.03857422,0.02001953,-0.3168945
622,-0.8125,-0.375,0.25,-0.04248047,0.02685547,0.9672852,0.03271484,0.02832031,-0.3154297
623,-0.125,-1,0.0625,-0.03857422,0.04638672,0.9633789,0.03271484,0.02832031,-0.3154297
625,-0.4375,-1.125,0.25,-0.05029297,0.03076172,0.9829102,0.03271484,0.02832031,-0.3154297
626,-0.8125,-1.0625,0.125,-0.04638672,0.04248047,0.9946289,0.02441406,0.02587891,-0.3139648
628,0.1875,-0.6875,0.0625,-0.03857422,0.03076172,0.9633789,0.02441406,0.02587891,-0.3139648
630,-0.0625,-0.5,0.0625,-0.04638672,0.04638672,0.9711914,0.02441406,0.02587891,-0.3139648
632,-0.0625,-0.9375,0,-0.03857422,0.04638672,0.9829102,0.02539063,0.02832031,-0.3125
633,-0.0625,-0.6875,-0.125,-0.05810547,0.02294922,0.9633789,0.02539063,0.02832031,-0.3125
636,-0.4375,-0.5625,-0.25,-0.03857422,0.05419922,0.9868164,0.02539063,0.02832031,-0.3125
637,-0.5625,-0.5,0.125,-0.03466797,0.02685547,0.9672852,0.02539063,0.02832031,-0.3125
639,-0.125,-0.1875,-0.5,-0.03076172,0.03076172,0.9672852,0.02539063,0.02832031,-0.3125
640,0,-0.375,-0.8125,-0.03857422,0.04248047,0.9829102,0.02539063,0.02832031,-0.3125
642,0.125,-0.0625,-0.5,-0.02685547,0.02685547,0.9633789,0.02539063,0.02832031,-0.3125
643,-0.4375,-0.75,-0.625,-0.03857422,0.02294922,0.9750977,0.02441406,0.02929688,-0.3071289
645,-0.3125,-0.125,-0.375,-0.02685547,0.04248047,0.9829102,0.02441406,0.02929688,-0.3071289
646,-0.25,-0.5,-0.625,-0.05029297,0.02685547,0.9790039,0.02441406,0.02929688,-0.3071289
648,0,-0.125,-0.5625,-0.01513672,0.03076172,0.9868164,0.03027344,0.02490234,-0.3095703
650,0.0625,-0.9375,-0.5,-0.05810547,0.03466797,0.9829102,0.03027344,0.02490234,-0.3095703
652,-0.0625,-0.125,-0.75,-0.01513672,0.01513672,0.9829102,0.03027344,0.02490234,-0.3095703
653,0,-0.4375,-0.8125,-0.03076172,0.02685547,0.9711914,0.03027344,0.02490234,-0.3095703
655,-0.1875,-0.0625,-0.5,-0.03076172,0.03076172,0.9907227,0.03027344,0.02490234,-0.3095703
656,0.375,-0.25,-1,-0.05810547,0.03466797,0.9868164,0.03027344,0.02490234,-0.3095703
658,0,0.125,-0.4375,-0.03076172,0.05029297,0.9555664,0.03027344,0.02490234,-0.3095703
659,0.5625,-0.5,-0.1875,-0.03857422,0.01513672,0.9711914,0.02880859,0.02001953,-0.3081055
661,0,-0.6875,-0.25,-0.03076172,0.03857422,0.9672852,0.02880859,0.02001953,-0.3081055
662,-0.125,-0.3125,0,-0.03076172,0.03076172,0.9711914,0.02880859,0.02001953,-0.3081055
664,-0.0625,-0.3125,-0.5,-0.04248047,0.02685547,0.9868164,0.03369141,0.02929688,-0.3208008
665,-0.4375,-0.75,-0.3125,-0.03076172,0.01904297,0.9672852,0.03369141,0.02929688,-0.3208008
667,-0.0625,-0.5625,0,-0.02685547,0.03076172,0.9477539,0.03369141,0.02929688,-0.3208008
668,-0.25,-0.8125,-0.1875,-0.03857422,0.03076172,0.9711914,0.02441406,0.0234375,-0.3081055
670,-0.25,-1.125,0.125,-0.01513672,0.01513672,0.9750977,0.02441406,0.0234375,-0.3081055
671,0,-0.6875,0,-0.01513672,0.04638672,0.9711914,0.02441406,0.0234375,-0.3081055
673,0,-0.625,0.1875,-0.03076172,0.01123047,0.9633789,0.02441406,0.0234375,-0.3081055
674,-0.125,-0.625,0.0625,-0.04248047,0.02685547,0.9477539,0.02783203,0.02490234,-0.3222656
676,-0.0625,-0.0625,0,-0.04638672,0.04248047,0.9711914,0.02783203,0.02490234,-0.3222656
677,-0.25,-0.625,0,-0.02685547,0.04638672,0.9829102,0.02783203,0.02490234,-0.3222656
679,-0.125,-0.125,0.625,-0.03076172,0.03076172,0.9829102,0.03125,0.02734375,-0.3222656
680,0.4375,-0.9375,0.1875,-0.04638672,0.01513672,0.9711914,0.03125,0.02734375,-0.3222656
682,-0.625,-0.3125,0.3125,-0.03076172,0.01513672,0.9672852,0.03125,0.02734375,-0.3222656
683,-0.125,-0.5,-0.25,-0.02294922,0.03076172,0.9672852,0.03466797,0.02929688,-0.3276367
685,0.75,-0.4375,0,-0.03076172,0.03857422,0.9477539,0.03466797,0.02929688,-0.3276367
686,-0.5,0,-0.3125,-0.03857422,0.03466797,0.9477539,0.03466797,0.02929688,-0.3276367
688,-0.3125,0.5,0.125,-0.03857422,0.03466797,0.9516602,0.03466797,0.02929688,-0.3276367
689,0.125,0.125,0,-0.05419922,0.03857422,0.9829102,0.03027344,0.0234375,-0.3125
691,0.5,-0.75,-0.25,-0.03466797,0.02294922,0.9672852,0.03027344,0.0234375,-0.3125
692,0.6875,-0.4375,-0.1875,-0.01513672,0.02294922,0.9477539,0.03027344,0.0234375,-0.3125
694,0.3125,0.3125,-0.3125,-0.03076172,0.01513672,0.9633789,0.02783203,0.03173828,-0.3208008
695,0.25,0,-0.4375,-0.04248047,0.04248047,0.9868164,0.02783203,0.03173828,-0.3208008
697,0.625,0.5625,-0.9375,-0.02294922,0.05029297,0.9946289,0.02783203,0.03173828,-0.3208008
698,0.5,0.0625,-0.25,-0.03076172,0.03076172,0.9750977,0.03125,0.02001953,-0.3110352
700,0.6875,-0.0625,-0.3125,-0.01513672,0.03466797,0.9594727,0.03125,0.02001953,-0.3110352
701,0.8125,0.4375,-0.3125,-0.03857422,0.03857422,0.9477539,0.03125,0.02001953,-0.3110352
703,0.5625,0.6875,-0.375,-0.01513672,0.02685547,0.9750977,0.03125,0.02001953,-0.3110352
704,0.25,0.1875,-0.875,-0.04638672,0.04638672,0.9790039,0.03125,0.02001953,-0.3110352
706,0.6875,0.4375,-0.5625,-0.04248047,0.01513672,0.9516602,0.03125,0.02001953,-0.3110352
707,0.625,-0.25,-1.0625,-0.01513672,0.03076172,0.9633789,0.03125,0.02001953,-0.3110352
709,0.8125,0.5,-0.9375,-0.03076172,0.05810547,0.9516602,0.02539063,0.03173828,-0.3193359
710,0.6875,-0.5,-0.4375,-0.03857422,0.03076172,0.9946289,0.02539063,0.03173828,-0.3193359
712,0.5,0.25,-0.625,-0.03466797,0.03076172,0.9829102,0.02539063,0.03173828,-0.3193359
713,0.4375,0.0625,-0.875,-0.03857422,0.03857422,0.9711914,0.02685547,0.02246094,-0.3110352
715,0.5625,0.5,-0.9375,-0.03466797,0.02685547,0.9516602,0.02685547,0.02246094,-0.3110352
716,0.75,-0.4375,-0.6875,-0.04248047,0.03466797,0.9868164,0.02685547,0.02246094,-0.3110352
718,0.9375,-0.4375,-0.75,-0.04248047,0.03466797,0.9750977,0.02685547,0.02246094,-0.3110352
719,1.0625,0.0625,-0.75,-0.04248047,0.03076172,0.9790039,0.02685547,0.02246094,-0.3110352
721,0.5625,0.6875,-1.4375,-0.03857422,0.04248047,0.9711914,0.02685547,0.02246094,-0.3110352
722,0.125,0,-0.875,-0.04248047,0.03076172,0.9946289,0.02685547,0.02246094,-0.3110352
724,0.5625,0.25,-0.625,-0.03466797,0.02685547,0.9594727,0.03466797,0.02490234,-0.3095703
725,0.4375,0.125,-1,-0.04248047,0.03076172,0.9829102,0.03466797,0.02490234,-0.3095703
727,0.25,0.375,-1,-0.04638672,0.03466797,0.9672852,0.03466797,0.02490234,-0.3095703
729,0.75,0.4375,-0.625,-0.03076172,0.01513672,0.9829102,0.02880859,0.03173828,-0.3193359
731,0.0625,-0.25,-0.5625,-0.03857422,0.03076172,0.9672852,0.02880859,0.03173828,-0.3193359
732,0.3125,0.375,-0.5,-0.03076172,0.01513672,0.9829102,0.02880859,0.03173828,-0.3193359
734,0.9375,0.0625,-1,-0.02685547,0.04248047,0.9633789,0.02539063,0.02832031,-0.3125
735,0.4375,0.25,-0.8125,-0.05029297,0.03076172,0.9672852,0.02539063,0.02832031,-0.3125
737,0.0625,-0.0625,-0.625,-0.04248047,0.04638672,0.9829102,0.02539063,0.02832031,-0.3125
738,0.625,0.0625,-0.9375,-0.03076172,0.03857422,0.9985352,0.02539063,0.02832031,-0.3125
740,0,-0.0625,-0.625,-0.03857422,0.05029297,0.9907227,0.0234375,0.02490234,-0.3178711
741,0.625,0.125,-0.1875,-0.04248047,0.04248047,0.9868164,0.0234375,0.02490234,-0.3178711
743,0.125,-0.1875,-0.9375,-0.03857422,0.01513672,0.9477539,0.0234375,0.02490234,-0.3178711
744,0.1875,0.1875,-0.25,-0.05419922,0.02685547,0.9829102,0.03466797,0.02587891,-0.3095703
746,0.5,-0.1875,-0.5625,-0.05029297,0.03857422,0.9633789,0.03466797,0.02587891,-0.3095703
747,-0.625,-0.625,-0.5625,-0.04638672,0.03857422,0.9750977,0.03466797,0.02587891,-0.3095703
749,0.1875,-0.5,-0.5,-0.05029297,0.03857422,0.9477539,0.02783203,0.02929688,-0.3168945
750,0,-0.0625,-0.75,-0.02685547,0.03857422,0.9555664,0.02783203,0.02929688,-0.3168945
752,0.125,0,-0.5,-0.04248047,0.03076172,0.9829102,0.02783203,0.02929688,-0.3168945
753,-0.125,-0.0625,-0.375,-0.05029297,0.03076172,0.9672852,0.02783203,0.02929688,-0.3168945
755,-0.5,-0.1875,-0.5,-0.04248047,0.05029297,0.9750977,0.03466797,0.02832031,-0.3222656
756,-0.25,0,-0.4375,-0.04638672,0.03857422,0.9868164,0.03466797,0.02832031,-0.3222656
758,0.0625,0,-0.25,-0.02294922,0.03076172,0.9829102,0.03466797,0.02832031,-0.3222656
759,0.125,-0.125,-0.3125,-0.02294922,0.01513672,0.9750977,0.02197266,0.02587891,-0.3168945
761,0,0.0625,-0.5,-0.03857422,0.03466797,0.9829102,0.02197266,0.02587891,-0.3168945
762,0.4375,0.0625,-0.5,-0.03076172,0.04638672,0.9633789,0.02197266,0.02587891,-0.3168945
764,0.625,-0.5625,-0.5,-0.04248047,0.03466797,0.9829102,0.03369141,0.0234375,-0.3095703
765,0.3125,0.125,-0.3125,-0.03857422,0.04638672,0.9829102,0.03369141,0.0234375,-0.3095703
767,0.6875,-0.375,-0.5,-0.04248047,0.04248047,0.9633789,0.03369141,0.0234375,-0.3095703
768,0,0.125,-0.5,-0.01513672,0.03076172,0.9516602,0.03369141,0.0234375,-0.3095703
770,0.25,0.375,-0.5,-0.04638672,0.03466797,0.9672852,0.03369141,0.0234375,-0.3095703
771,0.1875,0.6875,-0.375,-0.03857422,0.05029297,0.9438477,0.03369141,0.0234375,-0.3095703
773,0.125,0.0625,-0.5625,-0.03466797,0.03466797,0.9829102,0.03369141,0.0234375,-0.3095703
774,0.3125,0.75,-0.625,-0.04248047,0.02685547,0.9868164,0.03955078,0.01904297,-0.3110352
776,0.5625,0.3125,-0.4375,-0.03466797,0.01513672,0.9829102,0.03955078,0.01904297,-0.3110352
777,0.25,0.1875,-0.75,-0.01904297,0.03076172,0.9711914,0.03955078,0.01904297,-0.3110352
779,0.5625,0.375,-0.5,-0.04248047,0.04248047,0.9829102,0.03027344,0.03417969,-0.3168945
780,0.25,0.1875,-1.1875,-0.05029297,0.03076172,0.9711914,0.03027344,0.03417969,-0.3168945
782,0.25,0.5,-0.75,-0.02685547,0.01513672,0.9711914,0.03027344,0.03417969,-0.3168945
783,0.5,0.875,-1.0625,-0.04638672,0.02294922,0.9594727,0.03027344,0.03417969,-0.3168945
785,0.3125,0.75,-0.3125,-0.05029297,0.01513672,0.9594727,0.03027344,0.03417969,-0.3168945
786,0.8125,0.125,-0.8125,-0.03466797,0.03857422,0.9672852,0.03027344,0.03417969,-0.3168945
788,0.25,0.375,-0.25,-0.05810547,0.04638672,0.9711914,0.03027344,0.03417969,-0.3168945
789,0.0625,0.1875,-1.0625,-0.04638672,0.04248047,0.9829102,0.02685547,0.03173828,-0.3154297
791,0.3125,0.8125,-0.5625,-0.04248047,0.03857422,0.9672852,0.02685547,0.03173828,-0.3154297
792,0.25,0.375,-0.6875,-0.03466797,0.01904297,0.9711914,0.02685547,0.03173828,-0.3154297
794,0.75,-0.0625,-0.625,-0.03466797,0.05810547,0.9672852,0.03027344,0.0234375,-0.3208008
795,0.3125,0.1875,-1,-0.03466797,0.05810547,0.9790039,0.03027344,0.0234375,-0.3208008
797,-0.0625,0.25,-0.5,-0.02685547,0.04638672,0.9672852,0.03027344,0.0234375,-0.3208008
798,0.375,-0.5,-0.4375,-0.02685547,0.03076172,0.9829102,0.03125,0.02929688,-0.3139648
800,0,0.1875,-0.4375,-0.03076172,0.05029297,0.9907227,0.03125,0.02929688,-0.3139648
801,0.25,0.5,-0.4375,-0.03076172,0.03466797,0.9594727,0.03125,0.02929688,-0.3139648
803,0.1875,0,-0.5625,-0.04638672,0.03857422,0.9672852,0.03125,0.02929688,-0.3139648
804,0.3125,-0.0625,-0.5625,-0.04248047,0.03857422,0.9868164,0.02685547,0.0234375,-0.3178711
806,0,-0.0625,-0.75,-0.03466797,0.007324219,0.9516602,0.02685547,0.0234375,-0.3178711
807,0,0,-0.625,-0.04638672,0.03076172,0.9594727,0.02685547,0.0234375,-0.3178711
809,0.1875,0.1875,-0.3125,-0.04638672,0.02685547,0.9829102,0.03955078,0.03271484,-0.3178711
810,-0.0625,0.25,-0.25,-0.05419922,0.01513672,0.9672852,0.03955078,0.03271484,-0.3178711
812,0.125,-0.5,-0.375,-0.05029297,0.04248047,0.9594727,0.03955078,0.03271484,-0.3178711
813,0.25,0.25,-0.8125,-0.04638672,0.03076172,0.9672852,0.03027344,0.02148438,-0.3168945
815,-0.3125,-0.5625,0.0625,-0.01513672,0.02685547,0.9790039,0.03027344,0.02148438,-0.3168945
816,0,0,-0.5,-0.02685547,0.03857422,0.9829102,0.03027344,0.02148438,-0.3168945
818,-0.5,0.0625,-0.4375,-0.05419922,0.03076172,0.9594727,0.03027344,0.02148438,-0.3168945
819,-0.5,-0.125,0,-0.01904297,0.02294922,0.9829102,0.03027344,0.02587891,-0.3139648
821,0.25,0.125,-0.8125,-0.02685547,0.03076172,0.9711914,0.03027344,0.02587891,-0.3139648
822,-0.0625,-0.125,-0.3125,-0.03466797,0.03076172,0.9672852,0.03027344,0.02587891,-0.3139648
824,0,-0.375,0.0625,-0.03857422,0.04248047,0.9829102,0.02685547,0.02832031,-0.3125
827,-0.875,0,-0.75,-0.04638672,0.05419922,0.9829102,0.02685547,0.02832031,-0.3125
829,0,0,-0.75,-0.03076172,0.04248047,0.9946289,0.02685547,0.02832031,-0.3125
830,-0.0625,0,-0.625,-0.03857422,0.01513672,0.9672852,0.03466797,0.02246094,-0.3154297
832,0,0,-0.375,-0.01513672,0.04248047,0.9438477,0.03466797,0.02246094,-0.3154297
833,0.4375,0.625,0.0625,-0.03857422,0.03076172,0.9633789,0.03466797,0.02246094,-0.3154297
835,0.625,0.125,-0.625,-0.04248047,0.03857422,0.9711914,0.03466797,0.02246094,-0.3154297
836,0,-0.125,-0.8125,-0.03857422,0.03466797,0.9750977,0.03466797,0.02246094,-0.3154297
838,-0.0625,0.25,-0.5,-0.05029297,0.04248047,0.9829102,0.03466797,0.02246094,-0.3154297
839,0.125,0.1875,-0.25,-0.04248047,0.03466797,0.9633789,0.03466797,0.02246094,-0.3154297
841,0.375,0.4375,-0.5,-0.03857422,0.01123047,0.9633789,0.03271484,0.02148438,-0.3193359
842,0.1875,0,-0.4375,-0.03857422,0.03466797,0.9672852,0.03271484,0.02148438,-0.3193359
844,0.125,0.5,-0.6875,-0.01513672,0.03076172,0.9711914,0.03271484,0.02148438,-0.3193359
845,0.0625,0.25,-0.5,-0.04248047,0.01513672,0.9829102,0.03369141,0.01757813,-0.3178711
847,0.625,0,-0.375,-0.03466797,0.03466797,0.9868164,0.03369141,0.01757813,-0.3178711
848,0.375,0.4375,-0.5625,-0.02685547,0.02294922,0.9907227,0.03369141,0.01757813,-0.3178711
850,-0.125,0.4375,-0.3125,-0.02685547,0.01123047,0.9633789,0.03369141,0.01757813,-0.3178711
851,0.25,0.125,-0.9375,-0.04638672,0.04638672,0.9711914,0.03369141,0.01757813,-0.3178711
853,0.6875,-0.125,-0.25,-0.02294922,0.01123047,0.9672852,0.03369141,0.01757813,-0.3178711
854,0.25,0.5,-0.5,-0.04248047,0.04638672,0.9633789,0.03369141,0.01757813,-0.3178711
856,0.4375,0.5625,-0.25,-0.04638672,0.05029297,0.9711914,0.02880859,0.01904297,-0.3154297
857,-0.4375,0.5,-0.375,-0.03076172,0.01904297,0.9711914,0.02880859,0.01904297,-0.3154297
859,0.4375,-0.125,-0.5,-0.03076172,0.03076172,0.9711914,0.02880859,0.01904297,-0.3154297
860,0.4375,0.625,-0.5,-0.05029297,0.04248047,0.9829102,0.02685547,0.02734375,-0.3154297
862,0.3125,0.125,0,-0.03466797,0.03076172,0.9829102,0.02685547,0.02734375,-0.3154297
863,0.1875,0.625,-0.8125,-0.04248047,0.05029297,0.9750977,0.02685547,0.02734375,-0.3154297
865,0.8125,0.125,-0.5625,-0.04248047,0.04248047,0.9829102,0.02783203,0.01904297,-0.3178711
866,0.375,0.5625,-0.625,-0.03076172,0.03857422,0.9516602,0.02783203,0.01904297,-0.3178711
868,0.75,0.625,-0.875,-0.05029297,0.02294922,0.9790039,0.02783203,0.01904297,-0.3178711
869,0.25,1.0625,-0.125,-0.03466797,0.06201172,0.9829102,0.02783203,0.01904297,-0.3178711
871,0.5,0.0625,-1.0625,-0.02685547,0.06591797,0.9477539,0.03271484,0.03076172,-0.3125
872,0.1875,0.6875,-0.375,-0.02685547,0.02685547,0.9633789,0.03271484,0.03076172,-0.3125
874,-0.3125,0.25,-0.4375,-0.04248047,0.04248047,0.9829102,0.03271484,0.03076172,-0.3125
875,0.5625,0.4375,-0.4375,-0.05029297,0.02685547,0.9907227,0.03125,0.0234375,-0.3222656
877,0.5625,0.125,-0.75,-0.05419922,0.04248047,0.9711914,0.03125,0.0234375,-0.3222656
878,0.25,0.75,-0.375,-0.02685547,0.03076172,0.9672852,0.03125,0.0234375,-0.3222656
880,0,1.375,-0.625,-0.02685547,0.007324219,0.9711914,0.02880859,0.01904297,-0.3139648
881,-0.1875,0.1875,-0.375,-0.04248047,0.02685547,0.9711914,0.02880859,0.01904297,-0.3139648
883,0.0625,0.0625,-0.625,-0.03466797,0.03076172,0.9711914,0.02880859,0.01904297,-0.3139648
884,-0.25,0.1875,-0.25,-0.03466797,0.04248047,0.9868164,0.02880859,0.01904297,-0.3139648
886,-0.1875,0,-0.375,-0.04248047,0.05419922,0.9633789,0.03369141,0.03173828,-0.3251953
887,0.125,-0.0625,-0.1875,-0.04638672,0.04248047,0.9750977,0.03369141,0.03173828,-0.3251953
889,-0.5,-0.1875,-0.375,-0.03857422,0.04248047,0.9516602,0.03369141,0.03173828,-0.3251953
890,-0.25,0,-0.1875,-0.05029297,0.03857422,0.9594727,0.03369141,0.02148438,-0.3125
892,-0.4375,0,0,-0.03857422,0.01904297,0.9633789,0.03369141,0.02148438,-0.3125
893,-0.75,-0.3125,-0.25,-0.03076172,0.01123047,0.9594727,0.03369141,0.02148438,-0.3125
895,-0.6875,-0.4375,-0.3125,-0.04248047,0.03076172,0.9829102,0.02685547,0.02148438,-0.3154297
896,-0.4375,0.125,-0.375,-0.04248047,0.04248047,0.9829102,0.02685547,0.02148438,-0.3154297
898,-0.4375,-0.4375,-0.3125,-0.04248047,0.03466797,0.9711914,0.02685547,0.02148438,-0.3154297
899,0,-0.5625,-0.125,-0.03857422,0.01513672,0.9516602,0.02685547,0.02148438,-0.3154297
901,-0.625,-0.0625,-0.5625,-0.03466797,0.01513672,0.9790039,0.02685547,0.02148438,-0.3154297
902,-0.4375,0.3125,-0.1875,-0.03857422,0.01513672,0.9516602,0.02685547,0.02148438,-0.3154297
904,-0.375,-0.625,-0.1875,-0.03076172,0.05029297,0.9829102,0.02685547,0.02148438,-0.3154297
905,-0.5625,-0.375,0.0625,-0.04248047,0.02685547,0.9829102,0.02880859,0.02246094,-0.3237305
907,-0.4375,-0.5,-0.25,-0.03466797,0.04248047,0.9829102,0.02880859,0.02246094,-0.3237305
908,0,0,-0.375,-0.03857422,0.03076172,0.9829102,0.02880859,0.02246094,-0.3237305
910,-0.5625,-0.5625,-0.25,-0.02685547,0.04248047,0.9477539,0.03369141,0.0234375,-0.3139648
911,-0.5,-0.0625,-0.25,-0.05029297,0.05810547,0.9672852,0.03369141,0.0234375,-0.3139648
913,-0.5625,-0.4375,0.1875,-0.03466797,0.04248047,0.9633789,0.03369141,0.0234375,-0.3139648
914,0,-0.75,-0.5,-0.06591797,0.03076172,0.9594727,0.03369141,0.0234375,-0.3139648
916,-0.4375,0,0.25,-0.04638672,0.01513672,0.9555664,0.03369141,0.0234375,-0.3139648
917,0.25,-0.3125,-0.3125,-0.03466797,0.04248047,0.9594727,0.03369141,0.0234375,-0.3139648
919,0,0.1875,-0.3125,-0.04248047,0.05419922,0.9594727,0.03369141,0.0234375,-0.3139648
920,0.1875,-0.125,-0.125,-0.04638672,0.02685547,0.9477539,0.03027344,0.01904297,-0.3193359
922,0.4375,0.4375,-0.3125,-0.03076172,0.01513672,0.9868164,0.03027344,0.01904297,-0.3193359
924,-0.3125,0.125,-0.125,-0.03466797,0.02294922,0.9868164,0.03027344,0.01904297,-0.3193359
926,0.5,0.5,0.25,-0.06201172,0.01513672,0.9829102,0.03125,0.02490234,-0.3095703
927,0.75,0.25,-0.375,-0.02685547,0.01513672,0.9672852,0.03125,0.02490234,-0.3095703
929,-0.0625,0.375,-0.5,-0.05810547,0.03076172,0.9829102,0.03125,0.02490234,-0.3095703
930,-0.0625,0,-0.3125,-0.04248047,0.01513672,0.9672852,0.03125,0.0234375,-0.3222656
932,-0.3125,0.5,0,-0.02294922,0.01513672,0.9711914,0.03125,0.0234375,-0.3222656
933,-0.125,0,-0.5625,-0.03076172,0.03076172,0.9750977,0.03125,0.0234375,-0.3222656
935,0.1875,0.8125,-0.125,-0.06201172,0.03466797,0.9829102,0.03125,0.0234375,-0.3222656
936,0.25,0,-0.5,-0.04248047,0.03466797,0.9829102,0.03613281,0.02929688,-0.3193359
938,-0.0625,0.0625,-0.3125,-0.05810547,0.03076172,0.9790039,0.03613281,0.02929688,-0.3193359
939,-0.0625,0.1875,-0.625,-0.04248047,0.02685547,0.9829102,0.03613281,0.02929688,-0.3193359
941,-0.4375,0,-0.4375,-0.02294922,0.03466797,0.9790039,0.02783203,0.0234375,-0.3178711
942,0.3125,0.4375,-0.3125,-0.05810547,0.02685547,0.9711914,0.02783203,0.0234375,-0.3178711
944,-0.125,0.1875,-0.375,-0.05419922,0.03857422,0.9633789,0.02783203,0.0234375,-0.3178711
945,0,0.4375,-0.4375,-0.03857422,0.03857422,0.9594727,0.03613281,0.02490234,-0.3276367
947,-0.25,-0.1875,-0.25,-0.05419922,0.03857422,0.9516602,0.03613281,0.02490234,-0.3276367
948,0.3125,0,-0.4375,-0.03466797,0.03466797,0.9829102,0.03613281,0.02490234,-0.3276367
950,0.4375,-0.0625,-0.625,-0.03857422,0.03857422,0.9516602,0.03613281,0.02490234,-0.3276367
951,0.1875,-0.25,-0.25,-0.02685547,0.03076172,0.9555664,0.02197266,0.02148438,-0.3237305
953,-0.25,0,-0.4375,-0.03466797,0.03466797,0.9672852,0.02197266,0.02148438,-0.3237305
954,0.125,0,-0.9375,-0.03076172,0.03466797,0.9829102,0.02197266,0.02148438,-0.3237305
956,0,0.5625,-0.1875,-0.03466797,0.03076172,0.9829102,0.03125,0.02587891,-0.3193359
957,-0.125,0.125,-0.0625,-0.04248047,0.02685547,0.9555664,0.03125,0.02587891,-0.3193359
959,0.1875,0.25,-0.125,-0.03466797,0.04248047,0.9633789,0.03125,0.02587891,-0.3193359
960,0.0625,0.1875,-0.125,-0.03466797,0.02685547,0.9829102,0.03125,0.02734375,-0.3178711
962,0.4375,0.125,-0.25,-0.01513672,0.05029297,0.9711914,0.03125,0.02734375,-0.3178711
963,0,0,-0.375,-0.03076172,0.01513672,0.9790039,0.03125,0.02734375,-0.3178711
965,0.4375,-0.3125,-0.125,-0.03466797,0.03076172,0.9829102,0.03125,0.02734375,-0.3178711
966,0.75,0.4375,-0.3125,-0.05029297,0.05029297,0.9711914,0.03125,0.02734375,-0.3178711
968,-0.25,-0.1875,-0.1875,-0.02294922,0.03466797,0.9477539,0.03125,0.02734375,-0.3178711
969,0.375,0.8125,0,-0.05029297,0.02685547,0.9868164,0.03125,0.02734375,-0.3178711
971,0.75,0.0625,-0.4375,-0.03466797,0.03466797,0.9633789,0.02685547,0.02587891,-0.3110352
972,0.4375,0.1875,-0.5,-0.03857422,0.01123047,0.9790039,0.02685547,0.02587891,-0.3110352
974,0.625,0.0625,-0.5625,-0.04248047,0.03076172,0.9829102,0.02685547,0.02587891,-0.3110352
975,0.3125,0.125,-0.375,-0.04638672,0.02685547,0.9594727,0.03710938,0.02929688,-0.3193359
977,0.6875,0.8125,-0.25,-0.04638672,0.03466797,0.9711914,0.03710938,0.02929688,-0.3193359
978,0.25,0.4375,-0.25,-0.01513672,0.03076172,0.9750977,0.03710938,0.02929688,-0.3193359
980,0.125,1,0,-0.03076172,0.02685547,0.9672852,0.03710938,0.02929688,-0.3193359
981,0.625,0.5,-0.1875,-0.02685547,0.02685547,0.9711914,0.03710938,0.02929688,-0.3193359
983,0,0.25,-0.4375,-0.05029297,0.03076172,0.9907227,0.03710938,0.02929688,-0.3193359
984,-0.125,0.5,-0.4375,-0.05419922,0.01513672,0.9633789,0.03710938,0.02929688,-0.3193359
986,0.3125,0.5,-0.0625,-0.03466797,0.03076172,0.9633789,0.02685547,0.01660156,-0.3139648
987,0.625,0.4375,-0.3125,-0.05029297,0.02294922,0.9868164,0.02685547,0.01660156,-0.3139648
989,0.0625,-0.375,-0.4375,-0.05029297,0.03857422,0.9829102,0.02685547,0.01660156,-0.3139648
990,0.125,0.375,-0.5625,-0.03076172,0.03466797,0.9672852,0.03271484,0.02001953,-0.3251953
992,0.0625,-0.0625,-0.125,-0.04248047,0.03857422,0.9829102,0.03271484,0.02001953,-0.3251953
993,-0.0625,0,0,-0.04248047,0.01123047,0.9750977,0.03271484,0.02001953,-0.3251953
995,0.1875,0.25,-0.375,-0.03466797,0.02685547,0.9555664,0.02880859,0.02929688,-0.3178711
996,0,0.5,-0.4375,-0.05419922,0.01904297,0.9868164,0.02880859,0.02929688,-0.3178711
998,0.1875,0,-0.5,-0.05810547,0.01513672,0.9829102,0.02880859,0.02929688,-0.3178711
999,0,-0.125,-0.125,-0.04248047,0.03466797,0.9829102,0.02880859,0.02929688,-0.3178711
1001,-0.1875,0.1875,-0.875,-0.04638672,0.01123047,0.9672852,0.03125,0.02734375,-0.3154297
1002,0.375,0.25,-0.0625,-0.03466797,0.03857422,0.9672852,0.03125,0.02734375,-0.3154297
1004,0,0.25,-0.1875,-0.03857422,0.05029297,0.9868164,0.03125,0.02734375,-0.3154297
1005,-0.4375,-0.125,-0.375,-0.02294922,0.01513672,0.9555664,0.03027344,0.02587891,-0.3193359
1007,0.5,0.1875,-0.3125,-0.03857422,0.03466797,0.9633789,0.03027344,0.02587891,-0.3193359
1008,0.375,-0.125,-0.5625,-0.03857422,0.04638672,0.9907227,0.03027344,0.02587891,-0.3193359
1010,-0.0625,0.0625,-0.5,-0.03857422,0.03466797,0.9711914,0.03125,0.02148438,-0.3208008
1011,0,0.125,-0.375,-0.04638672,0.02685547,0.9907227,0.03125,0.02148438,-0.3208008
1013,0.125,0.25,-0.25,-0.04638672,0.03857422,0.9516602,0.03125,0.02148438,-0.3208008
1014,-0.25,-0.0625,-0.1875,-0.06591797,0.04638672,0.9946289,0.03125,0.02148438,-0.3208008
1016,-0.1875,0.0625,-0.1875,-0.04248047,0.02685547,0.9829102,0.03027344,0.03271484,-0.3178711
1017,0.0625,-0.375,-0.0625,-0.04248047,0.03076172,0.9555664,0.03027344,0.03271484,-0.3178711
1019,0,-0.4375,0,-0.03466797,0.04638672,0.9829102,0.03027344,0.03271484,-0.3178711
1021,0.3125,-0.0625,-0.375,-0.05029297,0.03076172,0.9555664,0.03027344,0.02587891,-0.3193359
1023,-0.625,-0.375,-0.9375,-0.04638672,0.05029297,0.9829102,0.03027344,0.02587891,-0.3193359
1024,0.0625,-0.1875,0.625,-0.05029297,0.03076172,0.9594727,0.03027344,0.02587891,-0.3193359
1026,-0.25,0.25,-0.4375,-0.03466797,0.03076172,0.9750977,0.03271484,0.0234375,-0.3222656
1027,-0.0625,0,-0.4375,-0.03076172,0.02294922,0.9633789,0.03271484,0.0234375,-0.3222656
1029,0.1875,-0.125,0,-0.04248047,0.03466797,0.9555664,0.03271484,0.0234375,-0.3222656
1030,0.3125,-0.75,0,-0.04248047,0.03076172,0.9711914,0.03271484,0.0234375,-0.3222656
1032,0,0.5,0.0625,-0.03076172,0.03076172,0.9672852,0.03271484,0.0234375,-0.3222656
1033,0.5,0.1875,-0.375,-0.05810547,0.02685547,0.9829102,0.03271484,0.0234375,-0.3222656
1035,0.5,-0.3125,-0.1875,-0.03076172,0.02294922,0.9907227,0.03271484,0.0234375,-0.3222656
1036,0.125,0.1875,-0.1875,-0.03076172,0.03076172,0.9750977,0.03271484,0.02490234,-0.3178711
1038,0.3125,-0.3125,-0.125,-0.02685547,0.02685547,0.9594727,0.03271484,0.02490234,-0.3178711
1039,0.1875,0.25,0.1875,-0.03857422,0.03466797,0.9711914,0.03271484,0.02490234,-0.3178711
1041,0.1875,-0.1875,-0.1875,-0.05419922,0.05419922,0.9829102,0.02783203,0.0234375,-0.3251953
1042,-0.25,-0.125,0,-0.04638672,0.05810547,0.9868164,0.02783203,0.0234375,-0.3251953
1044,0.5,-0.3125,0,-0.03076172,0.01513672,0.9477539,0.02783203,0.0234375,-0.3251953
1045,0.0625,-0.3125,-0.125,-0.03857422,0.02685547,0.9868164,0.02783203,0.0234375,-0.3251953
1047,0,0.0625,0.0625,-0.04248047,0.03466797,0.9672852,0.02783203,0.0234375,-0.3251953
1048,0,0,-0.375,-0.02685547,0.03076172,0.9829102,0.02783203,0.0234375,-0.3251953
1050,-0.0625,0.375,-0.0625,-0.03076172,0.03076172,0.9672852,0.02783203,0.0234375,-0.3251953
1051,0.125,0.5,-0.3125,-0.04248047,0.05029297,0.9672852,0.03125,0.02734375,-0.3168945
1053,0.3125,0.1875,0.5,-0.04248047,0.01513672,0.9750977,0.03125,0.02734375,-0.3168945
1054,-0.1875,0.4375,-0.375,-0.03857422,0.03466797,0.9594727,0.03125,0.02734375,-0.3168945
1056,-0.0625,0.1875,0.25,-0.04638672,0.03076172,0.9711914,0.02880859,0.02490234,-0.3168945
1057,-0.0625,-0.3125,-0.25,-0.05029297,0.03076172,0.9907227,0.02880859,0.02490234,-0.3168945
1059,0.25,0.1875,-0.25,-0.02685547,0.01513672,0.9672852,0.02880859,0.02490234,-0.3168945
1060,0,0.125,0.0625,-0.04638672,0.03857422,0.9672852,0.02880859,0.02929688,-0.3266602
1062,0.4375,-0.25,-0.3125,-0.05029297,0.04248047,0.9790039,0.02880859,0.02929688,-0.3266602
1063,-0.5625,0.625,-0.375,-0.03466797,0.03076172,0.9672852,0.02880859,0.02929688,-0.3266602
1065,0,0.1875,0.0625,-0.04248047,0.04248047,0.9633789,0.02880859,0.02929688,-0.3266602
1066,0.1875,-0.1875,0,-0.04638672,0.05419922,0.9829102,0.02880859,0.02929688,-0.3237305
1068,0.375,-0.375,-0.25,-0.05029297,0.01513672,0.9594727,0.02880859,0.02929688,-0.3237305
1069,0.4375,-0.1875,-0.25,-0.02294922,0.02685547,0.9711914,0.02880859,0.02929688,-0.3237305
1071,-0.0625,-0.5625,-0.25,-0.04248047,0.04638672,0.9829102,0.02880859,0.02587891,-0.3178711
1072,0.5,-0.5625,-0.3125,-0.04638672,0.03076172,0.9868164,0.02880859,0.02587891,-0.3178711
1074,0.125,-0.625,-0.1875,-0.01513672,0.01513672,0.9868164,0.02880859,0.02587891,-0.3178711
1075,0.25,0,-0.375,-0.06201172,0.03857422,0.9633789,0.03125,0.02490234,-0.3251953
1077,0.0625,-0.0625,-0.3125,-0.04638672,0.03857422,0.9672852,0.03125,0.02490234,-0.3251953
1078,-0.375,-0.0625,-0.25,-0.03857422,0.01513672,0.9633789,0.03125,0.02490234,-0.3251953
1080,0.125,-0.3125,0,-0.05029297,0.04638672,0.9633789,0.03125,0.02490234,-0.3251953
1081,0.1875,0.4375,0.125,-0.02294922,0.03857422,0.9750977,0.03027344,0.02001953,-0.3125
1083,0.0625,0.0625,0,-0.03466797,0.02685547,0.9829102,0.03027344,0.02001953,-0.3125
1084,0.4375,0.1875,0.1875,-0.03857422,0.02685547,0.9750977,0.03027344,0.02001953,-0.3125
1086,-0.125,0,-0.1875,-0.04638672,0.03466797,0.9750977,0.03271484,0.02490234,-0.3139648
1087,0.375,-0.4375,-0.1875,-0.04638672,0.01513672,0.9750977,0.03271484,0.02490234,-0.3139648
1089,-0.25,0.4375,-0.125,-0.03857422,0.03857422,0.9711914,0.03271484,0.02490234,-0.3139648
1090,-0.0625,0.25,0,-0.03857422,0.05029297,0.9594727,0.02783203,0.02148438,-0.3178711
1092,-0.375,-0.3125,0,-0.04248047,0.03466797,0.9633789,0.02783203,0.02148438,-0.3178711
1093,0.1875,0.5,-0.375,-0.03466797,0.04248047,0.9711914,0.02783203,0.02148438,-0.3178711
1095,0,-0.375,0,-0.03466797,0.04638672,0.9711914,0.02783203,0.02148438,-0.3178711
1096,0,-0.3125,-0.25,-0.04248047,0.02685547,0.9672852,0.02783203,0.02148438,-0.3178711
1098,0,-0.5,0.125,-0.02294922,0.01513672,0.9907227,0.02783203,0.02148438,-0.3178711
1099,-0.375,-0.3125,-0.125,-0.03857422,0.03076172,0.9711914,0.02783203,0.02148438,-0.3178711
1101,0.25,-0.1875,-0.375,-0.04638672,0.03466797,0.9790039,0.03710938,0.02929688,-0.3139648
1102,-0.1875,-0.125,-0.4375,-0.05419922,0.03466797,0.9711914,0.03710938,0.02929688,-0.3139648
1104,-0.6875,0.125,0,-0.03076172,0.01513672,0.9672852,0.03710938,0.02929688,-0.3139648
1105,0.3125,-0.0625,0.0625,-0.04248047,0.05029297,0.9790039,0.02099609,0.0234375,-0.3154297
1107,-0.75,0,-0.25,-0.03857422,0.03857422,0.9555664,0.02099609,0.0234375,-0.3154297
1108,0.3125,0.1875,0.25,-0.03857422,0.03466797,0.9633789,0.02099609,0.0234375,-0.3154297
1110,0,0.25,-0.5,-0.04248047,0.02294922,0.9829102,0.02099609,0.0234375,-0.3154297
1111,0.5,0.0625,-0.375,-0.03076172,0.03076172,0.9477539,0.02099609,0.0234375,-0.3154297
1113,0.0625,0.4375,-0.4375,-0.03857422,0.04638672,0.9790039,0.02099609,0.0234375,-0.3154297
1114,0.125,-0.125,-0.9375,-0.03076172,0.03857422,0.9516602,0.02099609,0.0234375,-0.3154297
1116,-0.3125,0.625,-0.875,-0.03076172,0.02685547,0.9868164,0.03613281,0.03271484,-0.3071289
1118,0.3125,0,0,-0.03466797,0.01513672,0.9672852,0.03613281,0.03271484,-0.3071289
1120,0.0625,0.375,-0.1875,-0.01513672,0,0.9672852,0.03613281,0.03271484,-0.3071289
1121,0,-0.125,-0.5,-0.05810547,0.05810547,0.9711914,0.03710938,0.0234375,-0.3154297
1123,0,0.125,-0.25,-0.03857422,0.04248047,0.9750977,0.03710938,0.0234375,-0.3154297
1124,0.0625,0.1875,-0.25,-0.02685547,0.007324219,0.9829102,0.03710938,0.0234375,-0.3154297
1126,0.4375,0.25,-0.625,-0.04248047,0.01513672,0.9829102,0.03369141,0.0234375,-0.3110352
1127,0.125,1,-0.375,-0.04638672,0.05029297,0.9594727,0.03369141,0.0234375,-0.3110352
1129,0.375,0.4375,0.1875,-0.03076172,0.01513672,0.9672852,0.03369141,0.0234375,-0.3110352
1130,0,-0.125,-0.375,-0.05029297,0.03076172,0.9829102,0.03369141,0.0234375,-0.3110352
1132,0.125,0.4375,-0.4375,-0.03857422,0.01513672,0.9594727,0.03271484,0.02832031,-0.3266602
1133,-0.0625,-0.1875,-0.125,-0.03857422,0.04638672,0.9633789,0.03271484,0.02832031,-0.3266602
1135,-0.3125,0.1875,-0.0625,-0.04638672,0.03466797,0.9594727,0.03271484,0.02832031,-0.3266602
1136,0.125,-0.0625,-0.1875,-0.04248047,0.03466797,0.9321289,0.02783203,0.01904297,-0.3110352
1138,0.125,0.125,-0.5,-0.03466797,0.03857422,0.9633789,0.02783203,0.01904297,-0.3110352
1139,0,0.5,0.0625,-0.04248047,0.05029297,0.9594727,0.02783203,0.01904297,-0.3110352
1141,-0.0625,0.3125,0.0625,-0.03466797,0.04248047,0.9829102,0.02685547,0.03076172,-0.3168945
1142,0.5,0.125,-0.25,-0.01513672,0.02294922,0.9672852,0.02685547,0.03076172,-0.3168945
1144,0.25,0,-0.125,-0.04248047,0.04638672,0.9829102,0.02685547,0.03076172,-0.3168945
1145,0.0625,0.0625,-0.3125,-0.03076172,0.01513672,0.9672852,0.02685547,0.03076172,-0.3168945
1147,-0.3125,-0.375,-0.1875,-0.05029297,0.05029297,0.9907227,0.02539063,0.02832031,-0.3178711
1148,0.25,0,0.125,-0.05029297,0.03076172,0.9633789,0.02539063,0.02832031,-0.3178711
1150,0.1875,-0.625,-0.4375,-0.03466797,0.02685547,0.9711914,0.02539063,0.02832031,-0.3178711
1151,0.3125,-0.1875,-0.3125,-0.03857422,0.03466797,0.9477539,0.02539063,0.03076172,-0.3193359
1153,-0.3125,-0.0625,-0.1875,-0.05029297,0.03466797,0.9829102,0.02539063,0.03076172,-0.3193359
1154,-0.375,-0.3125,-0.125,-0.03466797,0.04248047,0.9829102,0.02539063,0.03076172,-0.3193359
1156,-0.0625,0.0625,0.125,-0.02294922,0.01513672,0.9829102,0.03125,0.02929688,-0.3154297
1157,-0.6875,-0.125,-0.625,-0.05029297,0.05029297,0.9633789,0.03125,0.02929688,-0.3154297
1159,0.4375,0,-0.125,-0.04248047,0.02685547,0.9672852,0.03125,0.02929688,-0.3154297
1160,-0.125,-0.25,0,-0.03857422,0.04638672,0.9711914,0.03125,0.02929688,-0.3154297
1162,-0.25,0.0625,-0.5,-0.04638672,0.05029297,0.9633789,0.03125,0.02929688,-0.3154297
1163,0.125,-0.4375,-0.25,-0.04248047,0.01123047,0.9633789,0.03125,0.02929688,-0.3154297
1165,-0.5,-0.375,0,-0.04248047,0.02685547,0.9750977,0.03125,0.02929688,-0.3154297
1166,0.25,0.4375,0.1875,-0.05029297,0.03076172,0.9633789,0.02783203,0.02734375,-0.3178711
1168,-0.4375,-0.1875,-0.1875,-0.04638672,0.01513672,0.9868164,0.02783203,0.02734375,-0.3178711
1169,0,-0.3125,-0.25,-0.04638672,0.01123047,0.9399414,0.02783203,0.02734375,-0.3178711
1171,-0.0625,0,-0.3125,-0.03857422,0.03466797,0.9711914,0.03710938,0.0234375,-0.3193359
1172,-0.1875,-0.125,-0.4375,-0.05029297,0.01904297,0.9829102,0.03710938,0.0234375,-0.3193359
1174,-0.25,-0.125,-0.375,-0.03466797,0.04248047,0.9790039,0.03710938,0.0234375,-0.3193359
1175,-0.25,-0.0625,-0.1875,-0.03857422,0.03466797,0.9711914,0.03710938,0.0234375,-0.3193359
1177,-0.3125,-0.0625,-0.625,-0.03076172,0.02685547,0.9750977,0.03710938,0.0234375,-0.3193359
1178,0.1875,0,0.25,-0.03857422,0.03076172,0.9711914,0.03710938,0.0234375,-0.3193359
1180,0.0625,-0.375,-0.3125,-0.04248047,0.01904297,0.9516602,0.03710938,0.0234375,-0.3193359
1181,-0.125,-0.4375,-0.0625,-0.05029297,0.03857422,0.9907227,0.02880859,0.02246094,-0.3237305
1183,-0.3125,-0.1875,0.125,-0.03857422,0.01513672,0.9985352,0.02880859,0.02246094,-0.3237305
1184,0.125,-0.75,-0.1875,-0.03076172,0,0.9868164,0.02880859,0.02246094,-0.3237305
1186,-0.125,-0.4375,0,-0.04638672,0.04638672,0.9868164,0.02685547,0.02001953,-0.3193359
1187,0,-0.5625,-0.125,-0.04248047,0.03466797,0.9633789,0.02685547,0.02001953,-0.3193359
1189,0,0.0625,0,-0.03857422,0.03076172,0.9633789,0.02685547,0.02001953,-0.3193359
1190,0.125,-0.75,-0.1875,-0.03076172,0.03466797,0.9672852,0.03369141,0.01416016,-0.3154297
1192,0,-0.3125,0.3125,-0.02685547,0.04248047,0.9672852,0.03369141,0.01416016,-0.3154297
1193,-0.125,-0.0625,-0.125,-0.03857422,0.04638672,0.9672852,0.03369141,0.01416016,-0.3154297
1195,0,0,-0.125,-0.05029297,0.01513672,0.9672852,0.03369141,0.01416016,-0.3154297
1196,-0.375,-0.875,-0.25,-0.05810547,0.05029297,0.9946289,0.03710938,0.01904297,-0.3110352
1198,-0.3125,-0.375,0,-0.03466797,0.03076172,0.9868164,0.03710938,0.01904297,-0.3110352
1199,-0.6875,-0.4375,0.3125,-0.02685547,0.02685547,0.9672852,0.03710938,0.01904297,-0.3110352
1201,-0.3125,-0.3125,-0.25,-0.04638672,0.01513672,0.9672852,0.02685547,0.02246094,-0.3208008
1202,-0.3125,0,-0.25,-0.02685547,0.01513672,0.9829102,0.02685547,0.02246094,-0.3208008
1204,-0.375,-0.6875,-0.3125,-0.04638672,0.03076172,0.9829102,0.02685547,0.02246094,-0.3208008
1205,-0.5,-0.4375,-0.375,-0.007324219,0.03466797,0.9594727,0.03027344,0.03076172,-0.3237305
1207,-0.3125,-0.1875,0,-0.03466797,0.03857422,0.9711914,0.03027344,0.03076172,-0.3237305
1208,-0.0625,-0.0625,0,-0.03857422,0.03076172,0.9633789,0.03027344,0.03076172,-0.3237305
1210,-0.125,-0.125,-0.125,-0.04638672,0.01513672,0.9711914,0.03027344,0.03076172,-0.3237305
1211,0,0,0.1875,-0.03076172,0.03466797,0.9829102,0.03271484,0.02490234,-0.3154297
1213,-0.5625,-0.75,0.25,-0.05029297,0.04248047,0.9829102,0.03271484,0.02490234,-0.3154297
1216,-0.3125,-0.25,-0.0625,-0.03857422,0.02685547,0.9829102,0.03271484,0.02490234,-0.3154297
1218,-0.0625,0.125,0,-0.05029297,0.01513672,0.9829102,0.03466797,0.01757813,-0.3110352
1219,0.25,0.375,-0.375,-0.04248047,0.02685547,0.9790039,0.03466797,0.01757813,-0.3110352
1221,-0.5,0,-0.4375,-0.02685547,0.01123047,0.9711914,0.03466797,0.01757813,-0.3110352
1222,0,0,0.0625,-0.03857422,0.03466797,0.9711914,0.03125,0.02734375,-0.3081055
1224,0.5625,-0.0625,-0.25,-0.04638672,0.03857422,0.9594727,0.03125,0.02734375,-0.3081055
1225,0,0,-0.3125,-0.03076172,0.03076172,0.9985352,0.03125,0.02734375,-0.3081055
1227,-0.125,-0.1875,-0.5625,-0.03076172,0.01513672,0.9555664,0.03125,0.02734375,-0.3081055
1228,-0.1875,-0.5,0.0625,-0.04638672,0.03857422,0.9594727,0.03125,0.02734375,-0.3081055
1230,-0.1875,0.3125,-0.6875,-0.04248047,0.03466797,0.9672852,0.03125,0.02734375,-0.3081055
1231,-0.4375,-0.125,-0.375,-0.03466797,0.03076172,0.9633789,0.03125,0.02734375,-0.3081055
1233,0,0,-0.1875,-0.04248047,0.01513672,0.9672852,0.03027344,0.02734375,-0.3125
1234,-0.125,-0.0625,0,-0.04638672,0.03466797,0.9711914,0.03027344,0.02734375,-0.3125
1236,0.0625,0.1875,0,-0.02685547,0.04638672,0.9555664,0.03027344,0.02734375,-0.3125
1237,0.0625,0.25,-0.0625,-0.03857422,0.03466797,0.9829102,0.03027344,0.02246094,-0.3237305
1239,0.1875,-0.1875,0,-0.03466797,0.03076172,0.9711914,0.03027344,0.02246094,-0.3237305
1240,-0.125,0.1875,-0.4375,-0.03076172,0.01513672,0.9633789,0.03027344,0.02246094,-0.3237305
1242,0.0625,-0.125,-0.1875,-0.03466797,0.01123047,0.9594727,0.03027344,0.02246094,-0.3237305
1243,0.375,-0.0625,0.3125,-0.05029297,0.03076172,0.9672852,0.03027344,0.02246094,-0.3237305
1245,0.0625,0.0625,0,-0.03466797,0.04248047,0.9790039,0.03027344,0.02246094,-0.3237305
1246,0,-0.0625,-0.1875,-0.03466797,0.05029297,0.9633789,0.03027344,0.02246094,-0.3237305
1248,0,-0.1875,0,-0.03076172,0,0.9633789,0.03369141,0.02929688,-0.3237305
1249,0.5625,0,0,-0.03857422,0.04248047,0.9829102,0.03369141,0.02929688,-0.3237305
1251,0.0625,-0.375,-0.4375,-0.04248047,0.02685547,0.9672852,0.03369141,0.02929688,-0.3237305
1252,0.3125,-0.3125,-0.625,-0.03076172,0.02685547,0.9711914,0.02783203,0.02587891,-0.3168945
1254,0.0625,0.25,-0.5625,-0.03857422,0.03857422,0.9633789,0.02783203,0.02587891,-0.3168945
1255,-0.1875,0.25,-0.0625,-0.01513672,0.04638672,0.9555664,0.02783203,0.02587891,-0.3168945
1257,0.75,-0.125,-0.1875,-0.04248047,0.05029297,0.9633789,0.02539063,0.02246094,-0.3178711
1258,0.25,-0.25,-0.375,-0.03857422,0.03466797,0.9633789,0.02539063,0.02246094,-0.3178711
1260,0.375,0.3125,-0.625,-0.03466797,0.02685547,0.9633789,0.02539063,0.02246094,-0.3178711
1261,0.0625,-0.6875,-0.5625,-0.01513672,0.01904297,0.9711914,0.02539063,0.02246094,-0.3178711
1263,0.125,0.4375,-0.5,-0.05029297,0.03076172,0.9633789,0.02685547,0.02832031,-0.3222656
1264,-0.4375,-0.1875,-0.3125,-0.05419922,0.02294922,0.9672852,0.02685547,0.02832031,-0.3222656
1266,0.625,0.0625,-0.125,-0.03857422,0.01513672,0.9829102,0.02685547,0.02832031,-0.3222656
1267,-0.25,0.25,0,-0.04638672,0.04248047,0.9516602,0.03271484,0.02490234,-0.3237305
1269,0.0625,-0.625,-0.1875,-0.02294922,0.02685547,0.9711914,0.03271484,0.02490234,-0.3237305
1270,0,0.0625,-0.5,-0.03466797,0.03857422,0.9711914,0.03271484,0.02490234,-0.3237305
1272,0,-0.1875,-0.625,-0.02294922,0.02294922,0.9672852,0.03027344,0.02832031,-0.3139648
1273,0.125,-0.25,-0.5,-0.03076172,0.03076172,0.9633789,0.03027344,0.02832031,-0.3139648
1275,0,0.5,-0.75,-0.04248047,0.02294922,0.9633789,0.03027344,0.02832031,-0.3139648
1276,0.3125,0.1875,0.375,-0.04638672,0.01513672,0.9555664,0.03027344,0.02832031,-0.3139648
1278,-0.125,0,-0.3125,-0.05029297,0.03466797,0.9829102,0.03955078,0.01757813,-0.3139648
1279,0.375,0,0,-0.05810547,0.04638672,0.9829102,0.03955078,0.01757813,-0.3139648
1281,-0.0625,-0.375,-0.1875,-0.03466797,0.03076172,0.9633789,0.03955078,0.01757813,-0.3139648
1282,-0.25,0,-0.1875,-0.04638672,0.03466797,0.9829102,0.03710938,0.02832031,-0.3154297
1284,0.0625,0.0625,-0.375,-0.03857422,0.03466797,0.9829102,0.03710938,0.02832031,-0.3154297
1285,0,-0.625,-0.0625,-0.03857422,0.03076172,0.9711914,0.03710938,0.02832031,-0.3154297
1287,-0.25,0.4375,-0.1875,-0.03857422,0.04638672,0.9829102,0.03271484,0.02246094,-0.3208008
1288,-0.3125,0.3125,0.1875,-0.04248047,0.01904297,0.9829102,0.03271484,0.02246094,-0.3208008
1290,0.0625,-0.375,-0.3125,-0.04248047,0.01513672,0.9750977,0.03271484,0.02246094,-0.3208008
1291,-0.375,-0.6875,-0.375,-0.05029297,0.01513672,0.9633789,0.03271484,0.02246094,-0.3208008
1293,-0.25,0,-0.25,-0.02294922,0.02685547,0.9829102,0.03271484,0.02246094,-0.3208008
1294,0.0625,-0.1875,0,-0.03076172,0.02294922,0.9672852,0.03271484,0.02246094,-0.3208008
1296,0.3125,-0.125,-0.4375,-0.01513672,0.01513672,0.9672852,0.03271484,0.02246094,-0.3208008
1297,0,-0.3125,-0.4375,-0.03076172,0.03857422,0.9633789,0.03027344,0.02587891,-0.3125
1299,0.25,-0.125,0,-0.02294922,0.03076172,0.9829102,0.03027344,0.02587891,-0.3125
1300,0,-0.4375,-0.1875,-0.04248047,0.01904297,0.9829102,0.03027344,0.02587891,-0.3125
1302,0.1875,-0.0625,-0.375,-0.03466797,0.04638672,0.9555664,0.03125,0.02734375,-0.3208008
1303,0.375,0.5,-0.0625,-0.05810547,0.03466797,0.9907227,0.03125,0.02734375,-0.3208008
1305,-0.375,0,-0.75,-0.01513672,0.02685547,0.9829102,0.03125,0.02734375,-0.3208008
1306,-0.25,-0.125,-0.4375,-0.03076172,0.04248047,0.9829102,0.03125,0.02734375,-0.3208008
1308,0.375,0.1875,-0.375,-0.04248047,0.02294922,0.9477539,0.03125,0.02734375,-0.3208008
1309,0.1875,0.125,-0.5625,-0.03466797,0.02685547,0.9790039,0.03125,0.02734375,-0.3208008
1311,0.125,0.1875,-0.25,-0.01513672,0.01513672,0.9672852,0.03125,0.02734375,-0.3208008
1313,0.75,0.375,-0.75,-0.04638672,0.03466797,0.9594727,0.03125,0.02929688,-0.3208008
1315,0.0625,0.5625,0,-0.05029297,0.03857422,0.9633789,0.03125,0.02929688,-0.3208008
1316,0.25,0.4375,0.0625,-0.03076172,0.05029297,0.9829102,0.03125,0.02929688,-0.3208008
1318,0.0625,0.125,-0.5,-0.03076172,0.01513672,0.9711914,0.03125,0.02001953,-0.3168945
1319,0.3125,0.375,-0.5625,-0.04248047,0.03076172,0.9750977,0.03125,0.02001953,-0.3168945
1321,0.5,-0.3125,-0.375,-0.04248047,0.01513672,0.9829102,0.03125,0.02001953,-0.3168945
1322,0.125,0.25,-0.4375,-0.04248047,0.05029297,0.9829102,0.03027344,0.03515625,-0.3222656
1324,0.375,0.3125,-0.3125,-0.05810547,0.03466797,0.9868164,0.03027344,0.03515625,-0.3222656
1325,0,-0.1875,-0.3125,-0.04638672,0.03857422,0.9555664,0.03027344,0.03515625,-0.3222656
1327,0.375,-0.25,-0.375,-0.03076172,0.05810547,0.9711914,0.03027344,0.03515625,-0.3222656
1328,0.125,0.125,-0.1875,-0.04638672,0.05029297,0.9985352,0.02685547,0.02587891,-0.3154297
1330,-0.125,0,-0.25,-0.05029297,0.04248047,0.9829102,0.02685547,0.02587891,-0.3154297
1331,0,-0.375,-0.4375,-0.02685547,0.03076172,0.9555664,0.02685547,0.02587891,-0.3154297
1333,0.1875,-0.5625,0,-0.03857422,0.01513672,0.9555664,0.03710938,0.02246094,-0.3291016
1334,0.1875,0.1875,-0.25,-0.03466797,0.01513672,0.9868164,0.03710938,0.02246094,-0.3291016
1336,0.3125,-0.0625,-0.4375,-0.04248047,0.05419922,0.9868164,0.03710938,0.02246094,-0.3291016
1337,0.0625,0.375,-0.125,-0.05029297,0.03076172,0.9829102,0.03271484,0.02587891,-0.3110352
1339,-0.25,-0.1875,-0.25,-0.05029297,0.01513672,0.9555664,0.03271484,0.02587891,-0.3110352
1340,0,0,-0.5625,-0.05419922,0.01904297,0.9907227,0.03271484,0.02587891,-0.3110352
1342,0.1875,0.25,0.0625,-0.04248047,0.03857422,0.9985352,0.03271484,0.02587891,-0.3110352
1343,0.0625,0.125,0.25,-0.05029297,0.03466797,0.9829102,0.03271484,0.03271484,-0.3110352
1345,0.1875,-0.4375,-0.8125,-0.03466797,0.03076172,0.9711914,0.03271484,0.03271484,-0.3110352
1346,0,0.375,-0.4375,-0.04248047,0.04248047,0.9790039,0.03271484,0.03271484,-0.3110352
1348,0.0625,0,0,-0.02685547,0.02685547,0.9868164,0.02783203,0.02490234,-0.3193359
1349,0.5625,0.25,-0.25,-0.03076172,0.01513672,0.9868164,0.02783203,0.02490234,-0.3193359
1351,0.3125,-0.4375,-0.375,-0.05029297,0.03466797,0.9711914,0.02783203,0.02490234,-0.3193359
1352,0.25,0.0625,-0.1875,-0.02294922,0.03466797,0.9672852,0.03027344,0.02734375,-0.3178711
1354,-0.25,-0.3125,-0.1875,-0.03466797,0.01513672,0.9555664,0.03027344,0.02734375,-0.3178711
1355,-0.125,-0.125,-0.3125,-0.03857422,0.03466797,0.9829102,0.03027344,0.02734375,-0.3178711
1357,0.4375,-0.375,0,-0.03076172,0.03076172,0.9477539,0.03027344,0.02734375,-0.3178711
1358,-0.3125,0.0625,0.0625,-0.05029297,0.03857422,0.9672852,0.03027344,0.02734375,-0.3178711
1360,-0.0625,-0.125,-0.625,-0.03076172,0.03466797,0.9555664,0.03027344,0.02734375,-0.3178711
1361,-0.375,0.25,-0.5625,-0.03857422,0.03076172,0.9555664,0.03027344,0.02734375,-0.3178711
1363,0.1875,0.4375,0.375,-0.04248047,0.04638672,0.9555664,0.03125,0.02246094,-0.3168945
1364,1,-0.4375,-0.375,-0.04248047,0.02685547,0.9750977,0.03125,0.02246094,-0.3168945
1366,-0.25,-0.5,-0.3125,-0.01513672,0.02685547,0.9790039,0.03125,0.02246094,-0.3168945
1367,0.4375,-0.375,0,-0.04638672,0.02685547,0.9868164,0.02539063,0.0234375,-0.3168945
1369,0.5,-0.125,-0.375,-0.04248047,0.02685547,0.9633789,0.02539063,0.0234375,-0.3168945
1370,-0.25,-0.375,0,-0.03076172,0.03466797,0.9711914,0.02539063,0.0234375,-0.3168945
1372,-0.125,-0.375,0,-0.03466797,0.01513672,0.9750977,0.02539063,0.0234375,-0.3168945
1373,0,-0.4375,0,-0.03857422,0.01513672,0.9829102,0.02539063,0.0234375,-0.3168945
1375,0.4375,0.3125,-0.6875,-0.04248047,0.01513672,0.9790039,0.02539063,0.0234375,-0.3168945
1376,0.3125,0.25,-0.3125,-0.05029297,0.04248047,0.9907227,0.02539063,0.0234375,-0.3168945
1378,0,-0.3125,-0.3125,-0.03076172,0.05029297,0.9672852,0.03027344,0.0234375,-0.3237305
1379,0,-0.1875,-0.1875,-0.04248047,0.01513672,0.9633789,0.03027344,0.0234375,-0.3237305
1381,-0.0625,0,-0.4375,-0.03466797,0.05029297,0.9594727,0.03027344,0.0234375,-0.3237305
1382,0,-0.0625,0.0625,-0.03466797,0.03076172,0.9594727,0.02539063,0.02001953,-0.3193359
1384,0.1875,0.125,0,-0.03466797,0.01123047,0.9829102,0.02539063,0.02001953,-0.3193359
1385,-0.1875,0.0625,-0.0625,-0.03076172,0.02294922,0.9594727,0.02539063,0.02001953,-0.3193359
1387,0.0625,0.125,-0.25,-0.04248047,0.01513672,0.9672852,0.03369141,0.02734375,-0.3125
1388,-0.4375,-0.0625,0,-0.04638672,0.03466797,0.9868164,0.03369141,0.02734375,-0.3125
1390,0,0,-0.75,-0.04248047,0.03466797,0.9829102,0.03369141,0.02734375,-0.3125
1391,0.1875,-0.125,-0.5,-0.03076172,0.03857422,0.9711914,0.03369141,0.02734375,-0.3125
1393,0.25,0,-0.1875,-0.05029297,0.04248047,0.9711914,0.03369141,0.03173828,-0.3168945
1394,-0.4375,0,0.25,-0.04248047,0.04248047,0.9672852,0.03369141,0.03173828,-0.3168945
1396,0,-0.125,-0.375,-0.04248047,0.05810547,0.9829102,0.03369141,0.03173828,-0.3168945
1397,-0.25,0.8125,-0.0625,-0.05029297,0.03857422,0.9829102,0.03027344,0.02734375,-0.3125
1399,0.25,-0.125,-0.375,-0.06591797,0.02685547,0.9829102,0.03027344,0.02734375,-0.3125
1400,-0.3125,0.1875,0,-0.03466797,0.03076172,0.9711914,0.03027344,0.02734375,-0.3125
1402,0.375,0.1875,-0.1875,-0.03466797,0.05029297,0.9516602,0.03369141,0.02246094,-0.3110352
1403,0,-0.5,-0.5625,-0.03857422,0.03466797,0.9438477,0.03369141,0.02246094,-0.3110352
1405,0.5,0,0,-0.05810547,0.03076172,0.9633789,0.03369141,0.02246094,-0.3110352
1406,-0.125,0,0,-0.02294922,0.02685547,0.9594727,0.03369141,0.02246094,-0.3110352
1408,-0.0625,-0.0625,-0.125,-0.04638672,0.03466797,0.9672852,0.03027344,0.01757813,-0.3154297
1410,-0.5,0.5625,-0.0625,-0.03466797,0.02294922,0.9829102,0.03027344,0.01757813,-0.3154297
1412,0.4375,-0.1875,0,-0.04248047,0.04638672,0.9907227,0.03027344,0.01757813,-0.3154297
1413,0,0.0625,-0.3125,-0.02685547,0.03857422,0.9516602,0.03369141,0.03173828,-0.3168945
1415,0.9375,0,-0.1875,-0.04248047,0.02685547,0.9711914,0.03369141,0.03173828,-0.3168945
1416,0.0625,-0.5625,-0.25,-0.04248047,0.01513672,0.9594727,0.03369141,0.03173828,-0.3168945
1418,0,-0.375,-0.25,-0.03076172,0.05029297,0.9477539,0.03027344,0.0234375,-0.3168945
1419,0.1875,0.125,-0.4375,-0.01513672,0.03466797,0.9790039,0.03027344,0.0234375,-0.3168945
1421,0,-0.4375,-0.1875,-0.05810547,0.007324219,0.9711914,0.03027344,0.0234375,-0.3168945
1422,-0.4375,0.125,-0.3125,-0.04638672,0.04248047,0.9829102,0.03027344,0.0234375,-0.3168945
1424,0,-0.25,-0.1875,-0.03857422,0.03466797,0.9672852,0.03027344,0.0234375,-0.3168945
1425,-0.5625,0.0625,-0.3125,-0.04638672,0.03466797,0.9868164,0.03027344,0.0234375,-0.3168945
1427,-0.3125,-0.25,0,-0.03076172,0.02685547,0.9633789,0.03027344,0.0234375,-0.3168945
1428,0.75,-0.0625,0.0625,-0.04248047,0.04248047,0.9633789,0.04052734,0.01660156,-0.3237305
1430,-0.3125,0.0625,-0.375,-0.03466797,0.02685547,0.9672852,0.04052734,0.01660156,-0.3237305
1431,0.25,0,-0.3125,-0.01513672,0.01513672,0.9829102,0.04052734,0.01660156,-0.3237305
1433,0,0.375,-0.0625,-0.04248047,0.03076172,0.9750977,0.02539063,0.02929688,-0.3095703
1434,0,0.125,-0.3125,-0.04248047,0.03466797,0.9711914,0.02539063,0.02929688,-0.3095703
1436,0.125,-0.125,0.4375,-0.04248047,0.01513672,0.9711914,0.02539063,0.02929688,-0.3095703
1437,0,0,0.0625,-0.03076172,0.03076172,0.9750977,0.02539063,0.02148438,-0.3139648
1439,0.4375,0,-0.4375,-0.04248047,0.03857422,0.9672852,0.02539063,0.02148438,-0.3139648
1440,0.1875,-0.3125,-0.125,-0.04248047,0.01513672,0.9672852,0.02539063,0.02148438,-0.3139648
1442,0,-0.25,0.3125,-0.03076172,0.04248047,0.9711914,0.02539063,0.02148438,-0.3139648
1443,0.0625,0.125,-0.25,-0.01904297,0.03076172,0.9829102,0.03710938,0.015625,-0.3208008
1445,0,0.125,-0.125,-0.04248047,0.02685547,0.9829102,0.03710938,0.015625,-0.3208008
1446,0.3125,-0.3125,-0.125,-0.04638672,0.02685547,0.9868164,0.03710938,0.015625,-0.3208008
1448,-0.25,0.125,-0.5625,-0.02685547,0.02685547,0.9633789,0.03613281,0.0234375,-0.3139648
1449,0.4375,-0.4375,-0.625,-0.04248047,0.02685547,0.9672852,0.03613281,0.0234375,-0.3139648
1451,0.125,0.0625,-0.1875,-0.02294922,0.03076172,0.9711914,0.03613281,0.0234375,-0.3139648
1452,0.375,0,0.1875,-0.03857422,0.02685547,0.9438477,0.0234375,0.02929688,-0.3139648
1454,0.4375,0,0.125,-0.02294922,0.03076172,0.9672852,0.0234375,0.02929688,-0.3139648
1455,0.3125,-0.625,-0.125,-0.04248047,0.04248047,0.9829102,0.0234375,0.02929688,-0.3139648
1457,0.4375,0,-1.0625,-0.04638672,0.04638672,0.9868164,0.0234375,0.02929688,-0.3139648
1458,0.25,-0.125,0,-0.04638672,0.03466797,0.9516602,0.03613281,0.01904297,-0.3266602
1460,-0.25,0.5625,-0.625,-0.03857422,0.01123047,0.9829102,0.03613281,0.01904297,-0.3266602
1461,0.4375,-0.1875,-0.125,-0.05029297,0.03466797,0.9633789,0.03613281,0.01904297,-0.3266602
1463,0.1875,0.125,0.5,-0.04248047,0.02294922,0.9829102,0.03955078,0.02587891,-0.3178711
1464,0.5625,-0.4375,0,-0.01123047,0.02685547,0.9672852,0.03955078,0.02587891,-0.3178711
1466,0,-0.375,-0.3125,-0.03857422,0.04248047,0.9672852,0.03955078,0.02587891,-0.3178711
1467,0.0625,-0.0625,-0.0625,-0.04248047,0.03857422,0.9868164,0.03125,0.02490234,-0.3208008
1469,0,0,-0.0625,-0.01513672,0.02685547,0.9829102,0.03125,0.02490234,-0.3208008
1470,-0.3125,-0.0625,-0.25,-0.04638672,0.03076172,0.9555664,0.03125,0.02490234,-0.3208008
1472,0.4375,-0.3125,-0.5,-0.03466797,0.01513672,0.9672852,0.03125,0.02490234,-0.3208008
1473,-0.4375,0.25,0.0625,-0.03466797,0.03076172,0.9868164,0.03613281,0.02148438,-0.3276367
1475,0,0,-0.125,-0.03076172,0.03466797,0.9633789,0.03613281,0.02148438,-0.3276367
1476,0,-0.3125,-0.1875,-0.03466797,0.01513672,0.9711914,0.03613281,0.02148438,-0.3276367
1478,0.25,-0.6875,-0.0625,-0.03857422,0.05810547,0.9672852,0.02539063,0.0234375,-0.3178711
1479,-0.1875,-0.125,-0.1875,-0.03076172,0.02294922,0.9985352,0.02539063,0.0234375,-0.3178711
1481,0.1875,-0.3125,0.125,-0.03857422,0.02685547,0.9829102,0.02539063,0.0234375,-0.3178711
1482,0.125,-0.25,-0.125,-0.02685547,0.01513672,0.9633789,0.03613281,0.03076172,-0.3237305
1484,0,-0.1875,-0.5,-0.04638672,0.03857422,0.9633789,0.03613281,0.03076172,-0.3237305
1485,0,-0.0625,-0.375,-0.03857422,0.03466797,0.9555664,0.03613281,0.03076172,-0.3237305
1487,0.1875,-0.125,0.3125,-0.04638672,0.03466797,0.9672852,0.03613281,0.03076172,-0.3237305
1488,0,-0.375,-0.25,-0.04248047,0.04248047,0.9711914,0.03613281,0.03076172,-0.3237305
1490,0.625,-0.5,0,-0.05029297,0.03076172,0.9672852,0.03613281,0.03076172,-0.3237305
1491,0.4375,0.375,0,-0.03466797,0.01513672,0.9985352,0.03613281,0.03076172,-0.3237305
1493,0.4375,-0.25,-0.375,-0.05029297,0.02294922,0.9711914,0.02880859,0.01904297,-0.3193359
1494,0.25,0,0,-0.04638672,0.02685547,0.9829102,0.02880859,0.01904297,-0.3193359
1496,0.375,-0.25,-0.375,-0.03076172,0.01513672,0.9790039,0.02880859,0.01904297,-0.3193359
1497,0.75,0.3125,0,-0.03466797,0.03857422,0.9633789,0.03466797,0.02832031,-0.3154297
1499,0.75,0.125,-0.3125,-0.03076172,0.05029297,0.9711914,0.03466797,0.02832031,-0.3154297
1500,0.125,0.0625,-0.4375,-0.03466797,0.03076172,0.9750977,0.03466797,0.02832031,-0.3154297
1502,0.25,0.0625,-0.1875,-0.04638672,0.01513672,0.9711914,0.03466797,0.02832031,-0.3154297
1503,0.1875,-0.125,-0.3125,-0.03466797,0.02294922,0.9711914,0.03466797,0.02832031,-0.3154297
1505,0.1875,0.4375,0.125,-0.03857422,0.04638672,0.9790039,0.03466797,0.02832031,-0.3154297
1507,-0.5,-0.375,-0.0625,-0.04248047,0.01513672,0.9750977,0.03466797,0.02832031,-0.3154297
1509,-0.0625,0,-0.625,-0.03076172,0.03466797,0.9633789,0.02880859,0.0234375,-0.3139648
1510,0.625,-0.375,-0.5,-0.03857422,0.01123047,0.9594727,0.02880859,0.0234375,-0.3139648
1512,0.4375,-0.4375,-0.1875,-0.03076172,0.03076172,0.9711914,0.02880859,0.0234375,-0.3139648
1513,-0.1875,0.0625,-0.1875,-0.05029297,0.01123047,0.9829102,0.03466797,0.02587891,-0.3178711
1515,-0.125,0.0625,-0.25,-0.03857422,0.04248047,0.9829102,0.03466797,0.02587891,-0.3178711
1516,0.5,0.375,0.125,-0.04638672,0.03857422,0.9477539,0.03466797,0.02587891,-0.3178711
1518,0,-0.0625,-0.125,-0.05029297,0.03466797,0.9555664,0.0234375,0.0234375,-0.3193359
1519,-0.25,-0.4375,-0.1875,-0.03076172,0.03466797,0.9555664,0.0234375,0.0234375,-0.3193359
1521,-0.5625,-0.1875,-0.5625,-0.03466797,0.03466797,0.9711914,0.0234375,0.0234375,-0.3193359
1522,0.25,-0.3125,0,-0.02685547,0.03466797,0.9750977,0.0234375,0.0234375,-0.3193359
1524,0.0625,0.0625,-0.25,-0.03857422,0.01513672,0.9594727,0.02539063,0.02832031,-0.3110352
1525,0.5,-0.125,-0.5,-0.04638672,0.003417969,0.9555664,0.02539063,0.02832031,-0.3110352
1527,0.5625,0.25,-0.4375,-0.03857422,0.03466797,0.9633789,0.02539063,0.02832031,-0.3110352
1528,0.625,0,-0.1875,-0.04638672,0.02294922,0.9829102,0.03369141,0.02490234,-0.3178711
1530,-0.25,-0.3125,-0.4375,-0.03857422,0.01513672,0.9672852,0.03369141,0.02490234,-0.3178711
1531,0.0625,0.125,0,-0.03076172,0.03466797,0.9672852,0.03369141,0.02490234,-0.3178711
1533,0.0625,-0.1875,-0.25,-0.05419922,0.01513672,0.9633789,0.03710938,0.02490234,-0.3222656
1534,0.1875,0,0,-0.04248047,0.03857422,0.9516602,0.03710938,0.02490234,-0.3222656
1536,0.1875,0.4375,-0.125,-0.05419922,0.03466797,0.9633789,0.03710938,0.02490234,-0.3222656
1537,0.375,0,0.125,-0.03076172,0.01513672,0.9672852,0.03710938,0.02490234,-0.3222656
1539,0,0.25,0.25,-0.05029297,0.03466797,0.9829102,0.03710938,0.02490234,-0.3222656
1540,0.0625,0.1875,0.125,-0.02294922,0.01513672,0.9907227,0.03710938,0.02490234,-0.3222656
1542,0.25,-0.1875,-0.25,-0.04248047,0.02685547,0.9672852,0.03710938,0.02490234,-0.3222656
1543,0.4375,0.375,-0.625,-0.05419922,0.04248047,0.9711914,0.03466797,0.02587891,-0.3266602
1545,0.1875,-0.4375,-0.625,-0.01513672,0.03857422,0.9907227,0.03466797,0.02587891,-0.3266602
1546,0.1875,0,-0.625,-0.03466797,0.02685547,0.9829102,0.03466797,0.02587891,-0.3266602
1548,0.25,0,-0.4375,-0.06201172,0.01513672,0.9829102,0.02880859,0.02148438,-0.3081055
1549,0.25,0.1875,-0.1875,-0.04248047,0.05029297,0.9672852,0.02880859,0.02148438,-0.3081055
1551,0.375,0.4375,-0.4375,-0.05029297,0.02294922,0.9750977,0.02880859,0.02148438,-0.3081055
1552,0.4375,0.375,0.25,-0.03466797,0.04248047,0.9672852,0.02880859,0.02148438,-0.3081055
1554,0.1875,-0.0625,-0.125,-0.03466797,0.05029297,0.9829102,0.02880859,0.02148438,-0.3081055
1555,0,0,0,-0.04638672,0.03857422,0.9790039,0.02880859,0.02148438,-0.3081055
1557,0,0,-0.3125,-0.02685547,0.04248047,0.9907227,0.02880859,0.02148438,-0.3081055
1558,0.25,0.0625,0.125,-0.05029297,0.03466797,0.9555664,0.03271484,0.02001953,-0.3237305
1560,-0.3125,0,0.0625,-0.03857422,0.03076172,0.9829102,0.03271484,0.02001953,-0.3237305
1561,-0.0625,-0.25,0.0625,-0.03857422,0.02685547,0.9868164,0.03271484,0.02001953,-0.3237305
1563,0.625,0.375,0,-0.03076172,0.03466797,0.9633789,0.03125,0.02246094,-0.3139648
1564,0.0625,0,-0.625,-0.03076172,0.03857422,0.9633789,0.03125,0.02246094,-0.3139648
1566,-0.3125,0,-0.3125,-0.05419922,0.05029297,0.9868164,0.03125,0.02246094,-0.3139648
1567,0.0625,-0.125,0,-0.03857422,0.03857422,0.9868164,0.02880859,0.02148438,-0.3193359
1569,0.5,-0.125,0.25,-0.04638672,0.03466797,0.9711914,0.02880859,0.02148438,-0.3193359
1570,0.25,-0.1875,-0.375,-0.04248047,0.01513672,0.9829102,0.02880859,0.02148438,-0.3193359
1572,0.3125,0.3125,-0.125,-0.03466797,0.04248047,0.9711914,0.02880859,0.02148438,-0.3193359
1573,0.25,0.125,-0.875,-0.04638672,0.01513672,0.9594727,0.02539063,0.01904297,-0.3110352
1575,0.5,0,-0.25,-0.05029297,0.03857422,0.9829102,0.02539063,0.01904297,-0.3110352
1576,0.5,0.0625,-0.4375,-0.04638672,0.03466797,0.9672852,0.02539063,0.01904297,-0.3110352
1578,0.25,-0.375,-0.3125,-0.03076172,0.03466797,0.9829102,0.02539063,0.02246094,-0.3125
1579,0.4375,0.125,-0.4375,-0.04638672,0.03076172,0.9711914,0.02539063,0.02246094,-0.3125
1581,0,0,0.125,-0.03466797,0.04638672,0.9829102,0.02539063,0.02246094,-0.3125
1582,0.1875,0.3125,-0.25,-0.01513672,0.03857422,0.9829102,0.03466797,0.02490234,-0.3139648
1584,-0.0625,0.3125,-0.5,-0.04638672,0.02294922,0.9555664,0.03466797,0.02490234,-0.3139648
1585,0.1875,-0.0625,-0.625,-0.05029297,0.03857422,0.9672852,0.03466797,0.02490234,-0.3139648
1587,0.1875,0.25,0.1875,-0.05029297,0.03076172,0.9829102,0.03466797,0.02490234,-0.3139648
1588,0.1875,0.25,-0.625,-0.03466797,0.01513672,0.9672852,0.03125,0.02490234,-0.3139648
1590,-0.4375,-0.1875,0,-0.01904297,0.02294922,0.9829102,0.03125,0.02490234,-0.3139648
1591,0.6875,0.8125,-0.375,-0.04248047,0.01513672,0.9829102,0.03125,0.02490234,-0.3139648
1593,-0.1875,0.0625,-0.4375,-0.02294922,0.02685547,0.9516602,0.03125,0.02832031,-0.3237305
1594,-0.125,-0.25,-0.375,-0.01904297,0.01123047,0.9829102,0.03125,0.02832031,-0.3237305
1596,0.125,-0.125,-0.125,-0.03466797,0.01513672,0.9790039,0.03125,0.02832031,-0.3237305
1597,0.0625,-0.3125,-0.6875,-0.04248047,0.03857422,0.9750977,0.03125,0.03076172,-0.3110352
1599,-0.0625,-0.1875,-0.3125,-0.04638672,0.02685547,0.9829102,0.03125,0.03076172,-0.3110352
1600,0.625,0.5,-0.375,-0.04638672,0.03076172,0.9829102,0.03125,0.03076172,-0.3110352
1602,-0.125,0.25,-0.375,-0.03466797,0.02294922,0.9750977,0.03125,0.03076172,-0.3110352
1605,0.3125,0.125,-0.1875,-0.05029297,0.04638672,0.9985352,0.03271484,0.0234375,-0.3222656
1607,0.125,0.375,0,-0.04638672,0.01513672,0.9711914,0.03271484,0.0234375,-0.3222656
1608,0.3125,-0.125,-0.1875,-0.03466797,0.04638672,0.9750977,0.03271484,0.0234375,-0.3222656
1610,0.1875,-0.3125,-0.375,-0.02685547,0.01123047,0.9868164,0.03027344,0.0234375,-0.3178711
1611,0.375,0.1875,-0.1875,-0.05419922,0.03466797,0.9829102,0.03027344,0.0234375,-0.3178711
1613,0.25,0.4375,-0.3125,-0.04248047,0.03466797,0.9672852,0.03027344,0.0234375,-0.3178711
1614,0,0.1875,-0.4375,-0.03857422,0.03857422,0.9516602,0.03027344,0.02832031,-0.3110352
1616,0.25,0,0,-0.02685547,0.04248047,0.9672852,0.03027344,0.02832031,-0.3110352
1617,0.5625,0.125,0.125,-0.03076172,0.01513672,0.9672852,0.03027344,0.02832031,-0.3110352
1619,0.125,-0.3125,-0.875,-0.04248047,0.01513672,0.9829102,0.03027344,0.02832031,-0.3110352
1620,-0.125,0.1875,0.0625,-0.03466797,0.03076172,0.9633789,0.03027344,0.02832031,-0.3110352
1622,0.3125,-0.1875,-0.375,-0.01513672,0.03857422,0.9868164,0.03027344,0.02832031,-0.3110352
1623,0.3125,0,0.0625,-0.01513672,0.02685547,0.9672852,0.03027344,0.02832031,-0.3110352
1625,0.3125,-0.25,-0.1875,-0.05029297,0.01904297,0.9868164,0.02880859,0.02490234,-0.3178711
1626,0.8125,0.1875,-0.1875,-0.01123047,0.03076172,0.9594727,0.02880859,0.02490234,-0.3178711
1628,0.125,-0.1875,-0.4375,-0.02685547,0.03857422,0.9907227,0.02880859,0.02490234,-0.3178711
1629,0.0625,0,-0.0625,-0.04638672,0.03466797,0.9516602,0.03125,0.02587891,-0.3178711
1631,-0.0625,-0.5,-0.4375,-0.01123047,0.03076172,0.9750977,0.03125,0.02587891,-0.3178711
1632,0.125,-0.0625,-0.1875,-0.04638672,0.03466797,0.9829102,0.03125,0.02587891,-0.3178711
1634,0.5,-0.1875,-0.5,-0.04248047,0.03076172,0.9829102,0.02783203,0.02929688,-0.3139648
1635,-0.3125,0.125,-0.625,-0.03076172,0.03466797,0.9633789,0.02783203,0.02929688,-0.3139648
1637,0,-0.5625,-0.5,-0.03466797,0.03466797,0.9829102,0.02783203,0.02929688,-0.3139648
1638,0,0,-0.1875,-0.01904297,0.01123047,0.9790039,0.02783203,0.02929688,-0.3139648
1640,0.375,0.25,-0.5,-0.04248047,0.02294922,0.9594727,0.02880859,0.03076172,-0.3154297
1641,-0.0625,0,-0.125,-0.03466797,0.04248047,0.9555664,0.02880859,0.03076172,-0.3154297
1643,0.375,0.3125,-0.4375,-0.05810547,0.02685547,0.9946289,0.02880859,0.03076172,-0.3154297
1644,0.375,0.0625,-0.1875,-0.03466797,0.01513672,0.9672852,0.03466797,0.02587891,-0.3178711
1646,0.75,-0.125,-0.375,-0.03466797,0.02685547,0.9594727,0.03466797,0.02587891,-0.3178711
1647,0.5625,-0.125,-0.625,-0.03076172,0.04248047,0.9672852,0.03466797,0.02587891,-0.3178711
1649,-0.0625,0,-0.375,-0.03466797,0.03076172,0.9711914,0.02880859,0.0234375,-0.3168945
1650,0.0625,0.4375,-0.25,-0.02685547,0.007324219,0.9829102,0.02880859,0.0234375,-0.3168945
1652,0.5625,0.6875,-0.25,-0.03857422,0.02685547,0.9750977,0.02880859,0.0234375,-0.3168945
1653,0.5625,0,-0.5625,-0.007324219,0.03076172,0.9594727,0.02880859,0.0234375,-0.3168945
1655,0,0.375,-0.3125,-0.04248047,0.05029297,0.9711914,0.03271484,0.0234375,-0.3193359
1656,0.125,0.5,-0.4375,-0.04248047,0.02685547,0.9750977,0.03271484,0.0234375,-0.3193359
1658,0.375,0.125,0.25,-0.03076172,0.03466797,0.9672852,0.03271484,0.0234375,-0.3193359
1659,0.75,-0.125,-0.3125,-0.05029297,0.03857422,0.9711914,0.02685547,0.02490234,-0.3193359
1661,0.0625,0.125,-0.375,-0.03466797,0.01123047,0.9633789,0.02685547,0.02490234,-0.3193359
1662,0,-0.0625,-0.25,-0.05419922,0.03466797,0.9633789,0.02685547,0.02490234,-0.3193359
1664,0.0625,-0.0625,-0.625,-0.02294922,0.03857422,0.9672852,0.03710938,0.0234375,-0.3251953
1665,-0.25,0.25,-0.125,-0.03466797,0.02294922,0.9829102,0.03710938,0.0234375,-0.3251953
1667,-0.0625,0.125,-0.3125,-0.05029297,0.03466797,0.9672852,0.03710938,0.0234375,-0.3251953
1668,0.3125,0,-0.875,-0.04248047,0.03076172,0.9633789,0.03710938,0.0234375,-0.3251953
1670,0.125,-0.125,-0.5625,-0.04248047,0.03076172,0.9868164,0.03710938,0.0234375,-0.3251953
1671,-0.125,-0.5625,-0.375,-0.03857422,0.03466797,1.001953,0.03710938,0.0234375,-0.3251953
1673,0,0,-0.5625,-0.03076172,0.03076172,0.9750977,0.03710938,0.0234375,-0.3251953
1674,-0.3125,-0.1875,-0.125,-0.03466797,0.03466797,0.9790039,0.02685547,0.02246094,-0.3193359
1676,0.75,0.1875,-0.5625,-0.03076172,0.02294922,0.9633789,0.02685547,0.02246094,-0.3193359
1677,0,-0.5,-0.375,-0.03857422,0.02685547,0.9672852,0.02685547,0.02246094,-0.3193359
1679,0.5,-0.4375,-0.1875,-0.01513672,0.04248047,0.9672852,0.03369141,0.0234375,-0.3125
1680,0.1875,0,-0.3125,-0.01513672,0.04638672,0.9750977,0.03369141,0.0234375,-0.3125
1682,0.1875,-0.125,-0.375,-0.02294922,0.04638672,0.9829102,0.03369141,0.0234375,-0.3125
1683,0.0625,-0.3125,-0.4375,-0.03466797,0.03076172,0.9790039,0.03369141,0.0234375,-0.3125
1685,0.4375,0.25,-0.0625,-0.03076172,0.02685547,0.9829102,0.03369141,0.0234375,-0.3125
1686,0,-0.3125,-0.5,-0.03857422,0.03466797,0.9829102,0.03369141,0.0234375,-0.3125
1688,-0.1875,0,-0.375,-0.03857422,0.02685547,0.9594727,0.03369141,0.0234375,-0.3125
1689,0.0625,-0.125,-0.25,-0.04248047,0.01513672,0.9829102,0.03125,0.0234375,-0.3251953
1691,-0.125,0,-0.75,-0.03857422,0.03076172,0.9868164,0.03125,0.0234375,-0.3251953
1692,-0.125,-0.375,0,-0.04248047,0.03466797,0.9750977,0.03125,0.0234375,-0.3251953
1694,0.25,-0.625,-0.125,-0.03857422,0.01904297,0.9829102,0.02880859,0.02001953,-0.3193359
1695,0.125,0.375,-0.625,-0.04638672,0.03466797,0.9829102,0.02880859,0.02001953,-0.3193359
1697,0.1875,-0.0625,-0.1875,-0.02685547,0.04248047,0.9516602,0.02880859,0.02001953,-0.3193359
1698,0.0625,0,-0.0625,-0.03076172,0.03076172,0.9633789,0.03027344,0.02929688,-0.3178711
1700,0.25,-0.375,-0.6875,-0.01904297,0.05029297,0.9829102,0.03027344,0.02929688,-0.3178711
1702,0,-0.1875,-0.0625,-0.04248047,0.01123047,0.9907227,0.03027344,0.02929688,-0.3178711
1704,0,0,-0.5,-0.02294922,0.03857422,0.9711914,0.03027344,0.02929688,-0.3178711
1705,0.0625,0.1875,-0.5,-0.04248047,0.03466797,0.9868164,0.03027344,0.02734375,-0.3222656
1707,-0.125,-0.375,-0.3125,-0.04248047,0.06201172,0.9946289,0.03027344,0.02734375,-0.3222656
1708,-0.0625,0.0625,0,-0.01513672,0.01513672,0.9555664,0.03027344,0.02734375,-0.3222656
1710,0.75,0.1875,-0.375,-0.02685547,0.03076172,0.9594727,0.03369141,0.0234375,-0.3154297
1711,-0.125,0.3125,-0.0625,-0.05810547,0.03076172,0.9750977,0.03369141,0.0234375,-0.3154297
1713,0,0.0625,-0.125,-0.03857422,0.01513672,0.9633789,0.03369141,0.0234375,-0.3154297
1714,0.125,0.4375,-0.125,-0.03857422,0.02685547,0.9633789,0.03271484,0.02734375,-0.3208008
1716,-0.25,-0.0625,-0.375,-0.01123047,0.03857422,0.9790039,0.03271484,0.02734375,-0.3208008
1717,0.375,0.125,-0.1875,-0.04248047,0.03466797,0.9829102,0.03271484,0.02734375,-0.3208008
1719,0.25,0.125,-0.25,-0.03076172,0.03466797,0.9711914,0.03271484,0.02734375,-0.3208008
1720,0.375,-0.125,-0.0625,-0.03857422,0.04638672,0.9633789,0.03271484,0.02587891,-0.3178711
1722,0.25,0,-0.4375,-0.04638672,0.03076172,0.9829102,0.03271484,0.02587891,-0.3178711
1723,0.625,0,-0.125,-0.04248047,0.03857422,0.9868164,0.03271484,0.02587891,-0.3178711
1725,0.4375,-0.1875,0,-0.04248047,0.03076172,0.9907227,0.03125,0.02734375,-0.3178711
1726,0.0625,-0.125,-0.5,-0.04638672,0.03466797,0.9907227,0.03125,0.02734375,-0.3178711
1728,0,-0.125,-0.5625,-0.04638672,0.01513672,0.9829102,0.03125,0.02734375,-0.3178711
1729,0.1875,0.5,0,-0.04248047,0.03466797,0.9790039,0.0234375,0.02587891,-0.3168945
1731,0.1875,-0.5625,-0.3125,-0.04248047,0.01513672,0.9672852,0.0234375,0.02587891,-0.3168945
1732,0.0625,0.3125,-0.125,-0.05029297,0.01513672,0.9790039,0.0234375,0.02587891,-0.3168945
1734,0,-0.4375,-0.25,-0.05029297,0.03466797,0.9946289,0.0234375,0.02587891,-0.3168945
1735,0.25,0,-0.375,-0.05419922,0.03076172,0.9946289,0.02880859,0.02490234,-0.3095703
1737,0.3125,0.375,-0.5625,-0.04638672,0.04638672,0.9711914,0.02880859,0.02490234,-0.3095703
1738,0.1875,-0.375,-0.3125,-0.02685547,0.03076172,0.9672852,0.02880859,0.02490234,-0.3095703
1740,0.0625,-0.0625,0.0625,-0.03857422,0.04248047,0.9829102,0.02880859,0.02832031,-0.3178711
1741,0.125,0.0625,0.25,-0.04248047,0.03076172,0.9594727,0.02880859,0.02832031,-0.3178711
1743,0.125,0.6875,0,-0.05029297,0.04248047,0.9672852,0.02880859,0.02832031,-0.3178711
1744,0.0625,-0.5625,-0.25,-0.03076172,0.03076172,0.9711914,0.03613281,0.02832031,-0.3095703
1746,0,0,-0.1875,-0.03076172,0.01513672,0.9711914,0.03613281,0.02832031,-0.3095703
1747,0.0625,-0.125,-0.25,-0.03466797,0.01513672,0.9829102,0.03613281,0.02832031,-0.3095703
1749,0.3125,-0.5,-0.125,-0.05810547,0.03076172,0.9555664,0.03613281,0.02832031,-0.3095703
1750,0.25,0.0625,-0.375,-0.03857422,0.03466797,0.9633789,0.03613281,0.02832031,-0.3095703
1752,-0.125,-0.125,-0.4375,-0.03466797,0.02685547,0.9868164,0.03613281,0.02832031,-0.3095703
1753,-0.125,0,-0.0625,-0.03076172,0.05029297,0.9516602,0.03613281,0.02832031,-0.3095703
1755,0.375,-0.75,-0.75,-0.03857422,0.03857422,0.9750977,0.02783203,0.02587891,-0.3208008
1756,-0.4375,-0.0625,-0.5625,-0.03466797,0.01513672,0.9555664,0.02783203,0.02587891,-0.3208008
1758,0.375,0.0625,0.4375,-0.05029297,0.03466797,0.9711914,0.02783203,0.02587891,-0.3208008
1759,0.5625,0.375,-0.875,-0.04248047,0.02294922,0.9868164,0.03125,0.02734375,-0.3178711
1761,0.1875,-0.625,-0.375,-0.03076172,0.04638672,0.9829102,0.03125,0.02734375,-0.3178711
1762,0.3125,-0.5625,0,-0.04248047,0.01904297,0.9946289,0.03125,0.02734375,-0.3178711
1764,0.375,-0.25,-0.25,-0.03466797,0.04248047,0.9633789,0.02783203,0.02734375,-0.3110352
1765,-0.5625,-0.0625,-0.25,-0.03857422,0.01513672,0.9477539,0.02783203,0.02734375,-0.3110352
1767,0.0625,-0.0625,0.0625,-0.03857422,0.03857422,0.9750977,0.02783203,0.02734375,-0.3110352
1768,-0.0625,-0.25,-0.3125,-0.03857422,0.02685547,0.9829102,0.02783203,0.02734375,-0.3110352
1770,0.1875,-0.125,-0.125,-0.05029297,0.04248047,0.9555664,0.02783203,0.02832031,-0.3095703
1771,-0.3125,0,0.1875,-0.05029297,0.03857422,0.9555664,0.02783203,0.02832031,-0.3095703
1773,-0.125,0,0,-0.03857422,0.03466797,0.9829102,0.02783203,0.02832031,-0.3095703
1774,-0.125,0.1875,-0.375,-0.02685547,0.03076172,0.9829102,0.02880859,0.02246094,-0.3193359
1776,-0.375,0.125,-0.125,-0.03076172,0.01513672,0.9750977,0.02880859,0.02246094,-0.3193359
1777,0.375,-0.3125,-0.1875,-0.02294922,0.03076172,0.9868164,0.02880859,0.02246094,-0.3193359
1779,0.1875,0.0625,-0.375,-0.04638672,0.03466797,0.9555664,0.02197266,0.02490234,-0.3193359
1780,0.625,0.25,-0.4375,-0.05419922,0.03466797,0.9790039,0.02197266,0.02490234,-0.3193359
1782,0.375,0.0625,-0.125,-0.01513672,0.02685547,0.9750977,0.02197266,0.02490234,-0.3193359
1783,0.4375,0.25,-0.125,-0.04248047,0.03466797,0.9594727,0.02197266,0.02490234,-0.3193359
1785,0.1875,0.0625,-0.75,-0.03466797,0.03466797,0.9633789,0.02685547,0.02148438,-0.3237305
1786,-0.0625,0.375,-0.5,-0.03076172,0.01513672,0.9711914,0.02685547,0.02148438,-0.3237305
1788,0.1875,0.1875,-0.375,-0.03076172,0.03857422,0.9907227,0.02685547,0.02148438,-0.3237305
1789,0.625,-0.0625,-0.3125,-0.03857422,0.04248047,0.9829102,0.02880859,0.02490234,-0.3125
1791,0.3125,-0.1875,-0.1875,-0.04248047,0,0.9672852,0.02880859,0.02490234,-0.3125
1792,0.6875,0.25,-0.625,-0.03076172,0.02685547,0.9750977,0.02880859,0.02490234,-0.3125
1794,0.5,0.6875,-0.4375,-0.03466797,0.02294922,0.9672852,0.02783203,0.02587891,-0.3193359
1795,0.1875,0.0625,-0.3125,-0.05029297,0.04248047,0.9594727,0.02783203,0.02587891,-0.3193359
1797,0.25,0.1875,-0.25,-0.03076172,0.01123047,0.9790039,0.02783203,0.02587891,-0.3193359
1799,-0.125,0,0,-0.03076172,0.01123047,0.9750977,0.02783203,0.02587891,-0.3193359
1801,0.1875,0.5,-0.125,-0.04638672,0.01513672,0.9829102,0.02783203,0.02587891,-0.3193359
1802,-0.25,-0.375,-0.375,-0.04638672,0.03857422,0.9672852,0.02783203,0.02587891,-0.3193359
1804,0.0625,0.0625,-0.1875,-0.04248047,0.03857422,0.9633789,0.02783203,0.02587891,-0.3193359
1805,0.25,-0.0625,-0.125,-0.04248047,0.03857422,0.9829102,0.02685547,0.0234375,-0.3168945
1807,0.5,-0.25,-0.3125,-0.03857422,0.03076172,0.9672852,0.02685547,0.0234375,-0.3168945
1808,0.125,-0.125,0,-0.02294922,0.01513672,0.9750977,0.02685547,0.0234375,-0.3168945
1810,0.0625,-0.4375,0,-0.03466797,0.05029297,0.9829102,0.03271484,0.02929688,-0.3222656
1811,0,0.3125,-0.0625,-0.03466797,0.02685547,0.9633789,0.03271484,0.02929688,-0.3222656
1813,-0.3125,-0.125,0.1875,-0.04248047,0.03076172,0.9594727,0.03271484,0.02929688,-0.3222656
1814,0.125,0.5625,-0.25,-0.05029297,0.03076172,0.9633789,0.03271484,0.02929688,-0.3222656
1816,0,-0.0625,-0.0625,-0.03466797,0.04638672,0.9594727,0.03271484,0.02929688,-0.3222656
1817,0.4375,-0.25,-0.375,-0.03076172,0.03466797,0.9594727,0.03271484,0.02929688,-0.3222656
1819,0.5,-0.125,-0.125,-0.04638672,0.01513672,0.9829102,0.03271484,0.02929688,-0.3222656
1820,-0.1875,-0.5,-0.375,-0.01513672,0.01513672,0.9829102,0.03125,0.02929688,-0.3222656
1822,0.375,-0.125,0.0625,-0.03466797,0.01123047,0.9672852,0.03125,0.02929688,-0.3222656
1823,0.125,-0.1875,-0.0625,-0.03466797,0.02685547,0.9594727,0.03125,0.02929688,-0.3222656
1825,0.125,-0.0625,-0.875,-0.03857422,0.04248047,0.9907227,0.03271484,0.03076172,-0.3081055
1826,0.5625,0,-0.25,-0.05029297,0.03076172,0.9985352,0.03271484,0.03076172,-0.3081055
1828,0,-0.1875,-0.375,-0.04638672,0.03076172,0.9790039,0.03271484,0.03076172,-0.3081055
1829,-0.4375,0,-0.125,-0.03076172,0.04248047,0.9711914,0.02880859,0.0234375,-0.3193359
1831,-0.1875,0.3125,0.125,-0.03076172,0.03076172,0.9750977,0.02880859,0.0234375,-0.3193359
1832,-0.125,0.3125,-0.1875,-0.03857422,0.05029297,0.9868164,0.02880859,0.0234375,-0.3193359
1834,0.25,-0.0625,0.0625,-0.04248047,0.03076172,0.9555664,0.02880859,0.0234375,-0.3193359
1835,-0.1875,0.125,-0.4375,-0.03857422,0.02685547,0.9672852,0.03271484,0.02832031,-0.3276367
1837,0.6875,0.3125,-0.1875,-0.05029297,0.01513672,0.9633789,0.03271484,0.02832031,-0.3276367
1838,0,-0.375,0.1875,-0.05810547,0.05419922,0.9516602,0.03271484,0.02832031,-0.3276367
1840,0.5,0.75,0.0625,-0.02685547,0.01513672,0.9868164,0.02685547,0.0234375,-0.3193359
1841,0.4375,-0.25,-0.0625,-0.01513672,0.01513672,0.9516602,0.02685547,0.0234375,-0.3193359
1843,0.625,0,-0.5,-0.05029297,0.02294922,0.9633789,0.02685547,0.0234375,-0.3193359
1844,-0.1875,0.375,-0.25,-0.02685547,0.03466797,0.9594727,0.02197266,0.03076172,-0.3095703
1846,0.3125,-0.1875,-0.0625,-0.03466797,0.007324219,0.9672852,0.02197266,0.03076172,-0.3095703
1847,-0.5,0,0,-0.03076172,0.03076172,0.9633789,0.02197266,0.03076172,-0.3095703
1849,0.25,-0.4375,0,-0.03857422,0.01123047,0.9594727,0.02197266,0.03076172,-0.3095703
1850,0.25,0.5,-0.0625,-0.01513672,0.03857422,0.9790039,0.03125,0.02490234,-0.3251953
1852,-0.375,0.375,-0.0625,-0.03466797,0.01513672,0.9477539,0.03125,0.02490234,-0.3251953
1853,-0.125,-0.375,-0.5625,-0.04248047,0.03076172,0.9829102,0.03125,0.02490234,-0.3251953
1855,0.25,0.125,-0.3125,-0.02685547,0.04248047,0.9790039,0.03369141,0.02001953,-0.3168945
1856,0.25,0,-0.1875,-0.04248047,0.03076172,0.9711914,0.03369141,0.02001953,-0.3168945
1858,0,-0.125,-0.75,-0.03076172,0.03466797,0.9633789,0.03369141,0.02001953,-0.3168945
1859,-0.25,0.3125,-0.1875,-0.06591797,0.05810547,0.9594727,0.03613281,0.02832031,-0.3208008
1861,0.1875,-0.125,-0.375,-0.02685547,0.02685547,0.9711914,0.03613281,0.02832031,-0.3208008
1862,0.375,0.875,-0.5625,-0.05029297,0.03076172,0.9633789,0.03613281,0.02832031,-0.3208008
1864,0.3125,0.375,0,-0.03076172,0.05029297,0.9829102,0.03613281,0.02832031,-0.3208008
1865,0.4375,0.5625,-0.25,-0.05029297,0.04248047,0.9594727,0.03613281,0.02832031,-0.3208008
1867,-0.0625,0.1875,-0.0625,-0.03857422,0.01513672,0.9907227,0.03613281,0.02832031,-0.3208008
1868,-0.4375,-0.0625,-0.5625,-0.05419922,0.02685547,0.9633789,0.03613281,0.02832031,-0.3208008
1870,0.375,-0.1875,-0.4375,-0.03076172,0.01513672,0.9633789,0.02783203,0.03076172,-0.3095703
1871,0,-0.3125,-0.0625,-0.03466797,0.03466797,0.9907227,0.02783203,0.03076172,-0.3095703
1873,-0.125,-0.25,-0.1875,-0.05029297,0.03466797,0.9829102,0.02783203,0.03076172,-0.3095703
1874,0.125,-0.0625,-0.6875,-0.02294922,0.03857422,0.9829102,0.02783203,0.03173828,-0.3154297
1876,0.3125,-0.0625,0.25,-0.05810547,0.01513672,0.9868164,0.02783203,0.03173828,-0.3154297
1877,0.125,0.4375,0.0625,-0.04248047,0.03857422,0.9750977,0.02783203,0.03173828,-0.3154297
1879,-0.0625,0,-0.25,-0.05029297,0.01513672,0.9829102,0.02783203,0.03173828,-0.3154297
1880,0.3125,-0.25,-0.1875,-0.05810547,0.03466797,0.9633789,0.02783203,0.03173828,-0.3154297
1882,0,-0.1875,0,-0.03466797,0.02685547,0.9868164,0.02783203,0.03173828,-0.3154297
1883,0,-0.25,0,-0.05029297,0.02685547,0.9907227,0.02783203,0.03173828,-0.3154297
1885,0.0625,0.25,-0.5,-0.04248047,0.03857422,0.9829102,0.03027344,0.02832031,-0.3139648
1886,0.125,0.3125,0,-0.03076172,0.05029297,0.9829102,0.03027344,0.02832031,-0.3139648
1888,0,-0.25,-0.25,-0.03857422,0.03466797,0.9633789,0.03027344,0.02832031,-0.3139648
1889,-0.125,-0.4375,-0.375,-0.05029297,0.02294922,0.9711914,0.02539063,0.02734375,-0.3168945
1891,0,-0.125,-0.0625,-0.03466797,0.02294922,0.9829102,0.02539063,0.02734375,-0.3168945
1892,0,-0.25,-0.1875,-0.03857422,0.05029297,0.9946289,0.02539063,0.02734375,-0.3168945
1894,0.125,-0.25,-0.5625,-0.03076172,0.03076172,0.9711914,0.02685547,0.0234375,-0.3193359
1896,0.3125,-0.25,-0.625,-0.05029297,0.01513672,0.9633789,0.02685547,0.0234375,-0.3193359
1898,0.375,0.0625,-0.5,-0.03466797,0.03076172,0.9555664,0.02685547,0.0234375,-0.3193359
1899,-0.125,0,-0.0625,-0.05419922,0.05029297,0.9594727,0.02685547,0.0234375,-0.3193359
1901,0.1875,0.3125,-0.75,-0.03076172,0.03857422,0.9829102,0.03271484,0.02734375,-0.3222656
1902,0.375,0.3125,-0.1875,-0.03466797,0.007324219,0.9750977,0.03271484,0.02734375,-0.3222656
1904,0.125,0,0,-0.03076172,0.01513672,0.9555664,0.03271484,0.02734375,-0.3222656
1905,-0.5625,-0.125,0,-0.01513672,0.03857422,0.9711914,0.0234375,0.02246094,-0.3237305
1907,0,0,-0.125,-0.02685547,0.03076172,0.9868164,0.0234375,0.02246094,-0.3237305
1908,0.25,0.3125,-0.25,-0.02685547,0.02685547,0.9829102,0.0234375,0.02246094,-0.3237305
1910,-0.125,-0.875,-0.1875,-0.03857422,0.02685547,0.9829102,0.02783203,0.02734375,-0.3154297
1911,-0.125,0.25,-0.3125,-0.03466797,0.01513672,0.9829102,0.02783203,0.02734375,-0.3154297
1913,0.0625,-0.5625,-0.125,-0.03076172,0.02685547,0.9829102,0.02783203,0.02734375,-0.3154297
1914,0.125,-0.625,-0.5,-0.04248047,0.02294922,0.9672852,0.02783203,0.02734375,-0.3154297
1916,0.0625,0.25,-0.375,-0.05029297,0.03076172,0.9672852,0.03369141,0.02587891,-0.3081055
1917,-0.3125,0.3125,-0.25,-0.02685547,0.01513672,0.9790039,0.03369141,0.02587891,-0.3081055
1919,-0.125,0.1875,-0.125,-0.03076172,0.03466797,0.9633789,0.03369141,0.02587891,-0.3081055
1920,0,-0.0625,-0.375,-0.03466797,0.03076172,0.9750977,0.03271484,0.01757813,-0.3168945
1922,0.375,0,-0.25,-0.01123047,0.02685547,0.9672852,0.03271484,0.01757813,-0.3168945
1923,0.3125,0,0,-0.04638672,0.02685547,0.9672852,0.03271484,0.01757813,-0.3168945
1925,0.25,0.3125,-0.25,-0.02685547,0.01513672,0.9711914,0.03125,0.0234375,-0.3154297
1926,0.1875,-0.375,-0.5,-0.04248047,0.03076172,0.9750977,0.03125,0.0234375,-0.3154297
1928,0,-0.0625,-0.8125,-0.03466797,0.03076172,0.9790039,0.03125,0.0234375,-0.3154297
1929,0,0.25,-0.25,-0.03857422,0.02685547,0.9633789,0.03125,0.0234375,-0.3154297
1931,0,-0.1875,-0.375,-0.03857422,0.05029297,0.9790039,0.03125,0.0234375,-0.3154297
1932,0.625,-0.25,0,-0.02685547,0.05029297,0.9829102,0.03125,0.0234375,-0.3154297
1934,-0.3125,0.125,-0.125,-0.02294922,0.03857422,0.9594727,0.03125,0.0234375,-0.3154297
1935,-0.1875,-0.1875,0,-0.04638672,0.02685547,0.9711914,0.03125,0.02001953,-0.3266602
1937,0,0.75,-0.3125,-0.05029297,0.05029297,0.9790039,0.03125,0.02001953,-0.3266602
1938,0,0.4375,0,-0.01904297,0.03466797,0.9829102,0.03125,0.02001953,-0.3266602
1940,0.5,-0.3125,-0.1875,-0.03466797,0.007324219,0.9829102,0.02441406,0.02929688,-0.3110352
1941,0,0.0625,-0.25,-0.02685547,0.01513672,0.9633789,0.02441406,0.02929688,-0.3110352
1943,0.0625,0.5,0.0625,-0.05029297,0.01123047,0.9477539,0.02441406,0.02929688,-0.3110352
1944,-0.25,-0.0625,-0.375,-0.03076172,0.03076172,0.9594727,0.02441406,0.02929688,-0.3110352
1946,0,-0.125,-0.1875,-0.03076172,0.03466797,0.9868164,0.02441406,0.02929688,-0.3110352
1947,0,-0.125,-0.375,-0.04638672,0.02685547,0.9594727,0.02441406,0.02929688,-0.3110352
1949,0.4375,-0.0625,0,-0.03466797,0.03466797,0.9985352,0.02441406,0.02929688,-0.3110352
1950,0.25,0.1875,-0.25,-0.04248047,0.03076172,0.9516602,0.03955078,0.02832031,-0.3178711
1952,0.125,0.1875,-0.8125,-0.03076172,0.03076172,0.9868164,0.03955078,0.02832031,-0.3178711
1953,0.3125,0,-0.375,-0.03857422,0.01513672,0.9516602,0.03955078,0.02832031,-0.3178711
1955,0.4375,-0.0625,-0.0625,-0.03466797,0.01513672,0.9711914,0.02685547,0.02734375,-0.3095703
1956,-0.125,0.0625,-0.5,-0.05029297,0.03466797,0.9711914,0.02685547,0.02734375,-0.3095703
1958,0,-0.0625,-0.75,-0.02685547,0.04248047,0.9829102,0.02685547,0.02734375,-0.3095703
1959,-0.0625,0.1875,-0.25,-0.01513672,0.03857422,0.9829102,0.03027344,0.02929688,-0.3193359
1961,0,0,-0.125,-0.03466797,0.01123047,0.9555664,0.03027344,0.02929688,-0.3193359
1962,0.5625,-0.5625,0,-0.04248047,0.02685547,0.9868164,0.03027344,0.02929688,-0.3193359
1964,0.25,-0.25,-0.1875,-0.02685547,0.03466797,0.9633789,0.03027344,0.02929688,-0.3193359
1965,0.0625,-0.625,-0.6875,-0.05029297,0.02685547,0.9750977,0.03369141,0.02246094,-0.3208008
1967,0.875,0.125,0.0625,-0.01513672,0.01513672,0.9750977,0.03369141,0.02246094,-0.3208008
1968,0.375,0.125,-0.1875,-0.05029297,0.02685547,0.9711914,0.03369141,0.02246094,-0.3208008
1970,-0.0625,0.5,0.375,-0.05419922,0.04248047,0.9868164,0.03271484,0.02246094,-0.3041992
1971,0.125,0,-0.25,-0.05029297,-0.003417969,0.9633789,0.03271484,0.02246094,-0.3041992
1973,0.375,-0.5625,-0.0625,-0.03076172,0.04248047,0.9868164,0.03271484,0.02246094,-0.3041992
1974,0.6875,0.5625,-0.5,-0.01513672,0.04248047,0.9633789,0.03125,0.03173828,-0.3237305
1976,-0.5,-0.25,0,-0.03466797,0.02685547,0.9750977,0.03125,0.03173828,-0.3237305
1977,-0.4375,-0.25,-0.0625,-0.04248047,0.03466797,0.9829102,0.03125,0.03173828,-0.3237305
1979,-0.375,-0.125,-0.125,-0.04248047,0.03466797,0.9711914,0.03125,0.03173828,-0.3237305
1980,0,-0.375,-0.25,-0.04638672,0.02685547,0.9829102,0.03125,0.03173828,-0.3193359
1982,0.1875,-0.5625,-0.0625,-0.05810547,0.04248047,0.9829102,0.03125,0.03173828,-0.3193359
1983,0.25,0.1875,-0.0625,-0.06591797,0.01123047,0.9672852,0.03125,0.03173828,-0.3193359
1985,-0.125,0,-0.1875,-0.03076172,0.04248047,0.9633789,0.02880859,0.02490234,-0.3110352
1986,0.25,-0.1875,0,-0.04638672,0.03857422,0.9946289,0.02880859,0.02490234,-0.3110352
1988,-0.1875,0.25,0.1875,-0.04638672,0.03857422,0.9633789,0.02880859,0.02490234,-0.3110352
1989,0.3125,-0.9375,-0.0625,-0.02685547,0.01513672,0.9750977,0.03027344,0.02246094,-0.3125
1991,0.25,-0.375,-0.1875,-0.01513672,0.02294922,0.9555664,0.03027344,0.02246094,-0.3125
1994,0,-0.25,-0.125,-0.04638672,0.02685547,0.9750977,0.03027344,0.02246094,-0.3125
1996,-0.3125,-0.4375,-0.6875,-0.06201172,0.02685547,0.9555664,0.03027344,0.02246094,-0.3125
1997,-0.5625,-0.1875,0.125,-0.01513672,0.01513672,0.9829102,0.03027344,0.02246094,-0.3125
1999,0.375,-0.1875,0.1875,-0.04638672,0.03466797,0.9907227,0.03027344,0.02246094,-0.3125
2000,0,-0.3125,-0.3125,-0.02294922,0.02294922,0.9829102,0.03027344,0.02246094,-0.3125
2002,0,0,0,-0.01513672,0.03466797,0.9672852,0.02441406,0.02148438,-0.3208008
2003,0,-0.125,-0.1875,-0.01123047,0.03076172,0.9672852,0.02441406,0.02148438,-0.3208008
2005,-0.125,-0.375,-0.1875,-0.03857422,0.05029297,0.9868164,0.02441406,0.02148438,-0.3208008
2006,0,-0.4375,-0.375,-0.06591797,0.03857422,0.9711914,0.03271484,0.02832031,-0.3168945
2008,0.625,-0.0625,-0.5,-0.04248047,0.03466797,0.9633789,0.03271484,0.02832031,-0.3168945
2009,-0.375,-0.5625,0.25,-0.03076172,0.01513672,0.9829102,0.03271484,0.02832031,-0.3168945
2011,0.125,0,-0.8125,-0.05029297,0.02685547,0.9672852,0.03271484,0.02832031,-0.3168945
2012,0.125,-0.5,0.0625,-0.04248047,0.03857422,0.9633789,0.03271484,0.02832031,-0.3168945
2014,0,0,-0.0625,-0.03857422,0.03076172,0.9633789,0.03271484,0.02832031,-0.3168945
2015,0,-0.4375,0,-0.04638672,0.01513672,0.9633789,0.03271484,0.02832031,-0.3168945
2017,-0.0625,-0.25,-0.5625,-0.03857422,0.01904297,0.9829102,0.02783203,0.02929688,-0.3154297
2018,0.4375,-0.5625,-0.375,-0.04248047,0.01513672,0.9633789,0.02783203,0.02929688,-0.3154297
2020,-0.125,0,-0.25,-0.02685547,0.03466797,0.9711914,0.02783203,0.02929688,-0.3154297
2021,0,-0.25,-0.3125,-0.03466797,0.05419922,0.9594727,0.03271484,0.02929688,-0.3154297
2023,0.4375,0,0.25,-0.03466797,0.02294922,0.9633789,0.03271484,0.02929688,-0.3154297
2024,0.3125,-0.4375,-0.4375,-0.03076172,0.03466797,0.9672852,0.03271484,0.02929688,-0.3154297
2026,0,0,-0.1875,-0.03076172,0.03466797,0.9907227,0.03613281,0.02734375,-0.3222656
2027,0.5,-0.125,-0.625,-0.03076172,0.02294922,0.9711914,0.03613281,0.02734375,-0.3222656
2029,-0.1875,-0.4375,-0.1875,-0.05029297,0.03857422,0.9868164,0.03613281,0.02734375,-0.3222656
2030,0.25,-0.75,-0.125,-0.04248047,0.03857422,0.9790039,0.03613281,0.02734375,-0.3222656
2032,0.125,0.375,-0.0625,-0.04638672,0.03857422,0.9633789,0.03271484,0.01660156,-0.3208008
2033,0,-0.4375,0.25,-0.02685547,0.01123047,0.9399414,0.03271484,0.01660156,-0.3208008
2035,0.5,-0.3125,-0.4375,-0.04638672,0.02685547,0.9711914,0.03271484,0.01660156,-0.3208008
2036,-0.0625,-0.1875,0.25,-0.03076172,0.03466797,0.9516602,0.02783203,0.02587891,-0.3139648
2038,0.1875,-0.4375,-0.0625,-0.05419922,0.03466797,0.9750977,0.02783203,0.02587891,-0.3139648
2039,0,-0.25,-0.3125,-0.03076172,0.02685547,0.9829102,0.02783203,0.02587891,-0.3139648
2041,-0.125,-0.5625,-0.25,-0.04248047,0.02685547,0.9672852,0.0234375,0.02246094,-0.3178711
2042,0,0.125,-0.3125,-0.03076172,0.01513672,0.9750977,0.0234375,0.02246094,-0.3178711
2044,0.1875,-0.125,0,-0.02685547,0.05029297,0.9555664,0.0234375,0.02246094,-0.3178711
2045,0.3125,-0.1875,0,-0.03466797,0.04248047,0.9633789,0.0234375,0.02246094,-0.3178711
2047,0.1875,-0.25,-0.25,-0.03857422,0.03857422,0.9829102,0.0234375,0.02148438,-0.3251953
2048,0.5,0.3125,0,-0.03076172,0.03076172,0.9750977,0.0234375,0.02148438,-0.3251953
2050,-0.25,0,0.25,-0.03466797,0.03076172,0.9633789,0.0234375,0.02148438,-0.3251953
2051,0.625,0.0625,-0.125,-0.03076172,0.02294922,0.9672852,0.03125,0.02929688,-0.3168945
2053,0.25,-0.125,-0.4375,-0.03466797,0.03466797,0.9555664,0.03125,0.02929688,-0.3168945
2054,0,0.0625,-0.375,-0.04638672,0.01123047,0.9555664,0.03125,0.02929688,-0.3168945
2056,0.25,0.1875,-0.0625,-0.01513672,0.02294922,0.9672852,0.02783203,0.02001953,-0.3110352
2057,0.125,-0.0625,-0.3125,-0.04638672,0.01513672,0.9711914,0.02783203,0.02001953,-0.3110352
2059,0.1875,-0.0625,-0.3125,-0.04248047,0.01513672,0.9750977,0.02783203,0.02001953,-0.3110352
2060,-0.1875,0.375,-0.4375,-0.03076172,0.03076172,0.9711914,0.02783203,0.02001953,-0.3110352
2062,0,0,-0.5625,-0.04638672,0.03466797,0.9868164,0.02783203,0.02001953,-0.3110352
2063,0.375,0.3125,-0.5,-0.05029297,0.01513672,0.9516602,0.02783203,0.02001953,-0.3110352
2065,0.5625,0.1875,-0.25,-0.04638672,0.01123047,0.9868164,0.02783203,0.02001953,-0.3110352
2066,-0.1875,-0.375,-0.0625,-0.03076172,0.01513672,0.9946289,0.02783203,0.02246094,-0.3237305
2068,0.25,-0.5625,-1.125,-0.02294922,0.02685547,0.9868164,0.02783203,0.02246094,-0.3237305
2069,0,0,-0.25,-0.02685547,0.02294922,0.9672852,0.02783203,0.02246094,-0.3237305
2071,0,0.125,-0.375,-0.04638672,0.04248047,0.9829102,0.03369141,0.02734375,-0.3081055
2072,0.875,-0.3125,-0.25,-0.05419922,0.02685547,0.9594727,0.03369141,0.02734375,-0.3081055
2074,0.5,-0.1875,-0.875,-0.03466797,0.04248047,0.9672852,0.03369141,0.02734375,-0.3081055
2075,0.3125,-0.1875,-0.0625,-0.02685547,0.03857422,0.9633789,0.03369141,0.02734375,-0.3081055
2077,0.625,-0.1875,-0.4375,-0.01513672,0.05029297,0.9594727,0.03369141,0.02734375,-0.3081055
2078,0.0625,0.1875,0,-0.03076172,0.03466797,0.9750977,0.03369141,0.02734375,-0.3081055
2080,-0.125,0,-0.4375,-0.03466797,0,0.9555664,0.03369141,0.02734375,-0.3081055
2081,0.3125,-0.0625,-0.25,-0.04638672,0.03466797,0.9829102,0.02783203,0.02246094,-0.3208008
2083,-0.1875,-0.3125,-0.25,-0.03466797,0.03466797,0.9829102,0.02783203,0.02246094,-0.3208008
2084,0.4375,0,0.1875,-0.03076172,0.01513672,0.9672852,0.02783203,0.02246094,-0.3208008
2086,-0.0625,0,-0.5625,-0.03076172,0.02685547,0.9633789,0.03369141,0.0234375,-0.3237305
2087,0.1875,-0.0625,-0.375,-0.02685547,0.03076172,0.9555664,0.03369141,0.0234375,-0.3237305
2089,0.875,0.125,-0.125,-0.03857422,0.04638672,0.9829102,0.03369141,0.0234375,-0.3237305
2091,0.0625,-0.25,-0.4375,-0.02294922,0.03076172,0.9829102,0.03027344,0.03076172,-0.3139648
2093,0,-0.3125,-0.1875,-0.03857422,0.03857422,0.9907227,0.03027344,0.03076172,-0.3139648
2094,-0.125,-0.3125,-0.0625,-0.05029297,0.03857422,0.9672852,0.03027344,0.03076172,-0.3139648
2096,-0.3125,0.1875,-0.375,-0.04638672,0.03076172,0.9829102,0.03027344,0.03076172,-0.3139648
2097,-0.0625,-0.1875,-0.3125,-0.02685547,0.02685547,0.9829102,0.03369141,0.01416016,-0.3193359
2099,0,-0.0625,-0.0625,-0.02685547,0.02685547,0.9750977,0.03369141,0.01416016,-0.3193359
2100,0.1875,-0.1875,-0.5,-0.03076172,0.03076172,0.9750977,0.03369141,0.01416016,-0.3193359
2102,0,-0.0625,-0.1875,-0.05029297,0.01513672,0.9985352,0.03027344,0.03076172,-0.3168945
2103,0.5625,-0.25,-0.25,-0.03076172,0.02685547,0.9633789,0.03027344,0.03076172,-0.3168945
2105,-0.25,-0.125,-0.125,-0.01513672,0.04248047,0.9829102,0.03027344,0.03076172,-0.3168945
2106,0.5625,-0.125,-0.0625,-0.03857422,0.03466797,0.9555664,0.02539063,0.02929688,-0.3222656
